submission_id;MI;QUD;RT;age;comments;correct;correctness;education;endTime;experiment_id;gender;languages;mousetrackingDuration;mousetrackingStartTime;timestamps_get_response;xpos_get_response;ypos_get_response;movementDirection;option1;option2;originX;originY;question;response;startDate;startTime;startingTime;timeSpent;traveledDistance;trial_name;trial_number;typicality
2141;NA;;3179;24;;NA;NA;Graduated College;1.60E+12;164;männlich;Persian, german;NA;NA;NA;NA;NA;NA;Mouse;Touch Pad;NA;NA;Are you using a mouse or a touch pad in this experiment?;Mouse;Thu Aug 06 2020 14:00:17 GMT+0200 (Mitteleuropäische Sommerzeit);1.60E+12;NA;5.289216667;NA;mouse_question;1;NA
2141;NA;;2318;24;;NA;NA;Graduated College;1.60E+12;164;männlich;Persian, german;NA;NA;NA;NA;NA;NA;Left;Right;NA;NA;Are you using your left or right hand in this experiment?;Right;Thu Aug 06 2020 14:00:17 GMT+0200 (Mitteleuropäische Sommerzeit);1.60E+12;NA;5.289216667;NA;hand_question;1;NA
2141;10;NA;3157;24;;Mammal;Correct;Graduated College;1.60E+12;164;männlich;Persian, german;3071;1.60E+12;[0,8,98,188,278,336,351,441,502,508,524,541,558,574,591,608,624,674,690,707,724,741,757,774,790,807,824,840,857,873,890,907,923,940,957,973,990,1007,1024,1040,1057,1073,1090,1107,1123,1140,1157,1173,1189,1206,1223,1240,1256,1273,1290,1306,1323,1339,1356,1373,1390,1406,1423,1439,1456,1472,1489,1506,1523,1539,1556,1572,1589,1605,1623,1639,1656,1746,1802,1816,1824,1839,1856,1872,1889,1906,1922,1939,1956,1973,1989,2005,2055,2145,2224,2238,2255,2345,2435,2524,2538,2554,2571,2588,2604,2621,2638,2654,2744,2828,2837,2849,2870,2887,2904,2920,2937,2954,2971,3004,3020,3071];[0,0,0,0,0,-1,-2,-1,0,5,17,41,80,114,142,157,162,163,169,176,182,185,186,182,155,133,102,76,56,37,21,15,10,-13,-35,-69,-110,-148,-177,-194,-214,-258,-280,-293,-299,-306,-314,-324,-326,-327,-329,-331,-333,-335,-336,-338,-341,-346,-355,-367,-379,-393,-403,-409,-411,-412,-415,-419,-423,-427,-431,-436,-447,-455,-460,-463,-464,-465,-465,-465,-466,-467,-468,-470,-471,-472,-474,-475,-475,-476,-477,-478,-479,-470,-463,-400,-234,45,324,599,598,597,593,588,582,577,575,573,572,572,571,569,569,569,569,569,574,578,581,581,581,580];[0,1,1,1,1,2,3,3,3,3,2,-2,-9,-11,-12,-12,-12,-12,-4,8,23,40,59,85,151,181,209,231,247,258,266,268,269,277,286,295,306,317,330,335,344,362,373,385,397,415,436,458,465,471,480,492,503,514,519,523,527,532,539,545,551,560,565,567,568,569,572,574,577,579,582,585,592,595,599,599,601,601,601,603,605,607,615,619,624,628,633,635,636,638,639,639,639,639,639,643,657,658,659,659,652,647,641,633,625,613,604,600,600,600,600,601,606,611,614,620,640,647,651,652,653,651];79.1631574;Mammal;Amphibian;799;661;Rabbit;Mammal;Thu Aug 06 2020 14:00:17 GMT+0200 (Mitteleuropäische Sommerzeit);1.60E+12;1.60E+12;5.289216667;122;training;1;Typical
2141;355;NA;2186;24;;Mammal;Correct;Graduated College;1.60E+12;164;männlich;Persian, german;2045;1.60E+12;[0,90,180,270,355,364,381,397,414,430,447,464,480,497,514,530,547,563,580,597,613,630,647,663,680,697,713,730,746,763,780,797,813,830,846,927,933,946,964,979,996,1013,1075,1083,1096,1113,1129,1146,1162,1179,1196,1213,1230,1246,1263,1279,1296,1313,1403,1479,1495,1512,1529,1546,1562,1579,1596,1613,1629,1646,1662,1679,1696,1712,1729,1745,1761,1778,1795,1811,1828,1845,1862,1879,1895,1912,1928,1945,1962,2028,2045];[0,1,2,3,2,4,10,16,24,29,35,40,41,44,48,54,59,64,66,70,74,78,83,86,82,72,52,23,-25,-58,-78,-92,-100,-101,-102,-103,-104,-105,-106,-108,-109,-110,-105,-85,-52,72,181,266,319,357,382,401,420,440,459,464,466,467,463,460,410,315,103,-56,-208,-316,-365,-383,-392,-396,-400,-409,-417,-424,-431,-437,-441,-448,-452,-457,-464,-471,-475,-476,-477,-477,-477,-477,-477,-477,-477];[0,0,0,0,0,0,1,3,4,4,4,5,6,8,9,11,12,13,15,17,21,26,37,63,112,175,248,311,391,431,448,455,458,459,459,459,459,459,459,459,459,459,460,468,479,516,548,576,587,598,608,616,627,639,650,654,655,655,653,651,624,596,568,547,538,530,528,530,532,534,536,542,546,548,552,554,556,559,564,574,585,604,620,628,634,637,639,640,641,643,644];78.97301523;Mammal;Reptile;784;666;Bat;Mammal;Thu Aug 06 2020 14:00:17 GMT+0200 (Mitteleuropäische Sommerzeit);1.60E+12;1.60E+12;5.289216667;91;training;2;Typical
2141;659;NA;1214;24;;Mammal;Correct;Graduated College;1.60E+12;164;männlich;Persian, german;935;1.60E+12;[0,90,180,270,360,450,540,630,659,669,685,702,718,735,751,768,784,801,818,835,851,868,885,902,918,935];[0,-1,-2,-3,-4,-5,-6,-7,-4,-18,-92,-180,-280,-378,-462,-515,-528,-531,-532,-533,-535,-536,-540,-546,-550,-551];[0,1,2,3,4,5,6,7,9,52,166,264,346,424,516,568,585,592,597,600,604,608,615,627,636,639];49.119923;Mammal;Bird;780;670;Lion;Mammal;Thu Aug 06 2020 14:00:17 GMT+0200 (Mitteleuropäische Sommerzeit);1.60E+12;1.60E+12;5.289216667;26;training;3;Typical
2141;447;NA;1778;24;;Reptile;Correct;Graduated College;1.60E+12;164;männlich;Persian, german;1531;1.60E+12;[0,90,180,270,360,447,454,465,482,499,515,532,548,565,582,599,615,632,648,665,682,698,715,732,748,765,781,798,815,831,848,865,882,898,931,948,965,982,998,1015,1027,1117,1181,1197,1215,1231,1248,1264,1325,1339,1347,1364,1381,1397,1414,1431,1447,1464,1481,1497,1514,1531];[0,0,0,0,0,2,4,7,15,24,31,36,39,40,42,43,44,46,47,47,47,48,49,49,31,-42,-149,-284,-489,-604,-677,-693,-694,-694,-690,-685,-679,-671,-653,-625,-599,-168,138,155,197,289,310,312,312,313,315,322,333,345,355,361,367,373,383,389,391,392];[0,1,2,3,4,3,6,10,18,30,42,49,54,55,56,58,61,64,67,68,69,71,76,96,152,264,368,466,554,593,612,619,620,619,622,626,631,636,644,652,659,660,660,652,648,633,633,633,632,632,632,634,636,636,636,636,636,634,632,630,629,629];85.13571702;Reptile;Amphibian;785;662;Salamander;Reptile;Thu Aug 06 2020 14:00:17 GMT+0200 (Mitteleuropäische Sommerzeit);1.60E+12;1.60E+12;5.289216667;62;main;1;Atypical
2141;525;NA;1338;24;;Fish;Correct;Graduated College;1.60E+12;164;männlich;Persian, german;1191;1.60E+12;[0,90,180,270,360,450,525,542,558,575,592,609,625,642,658,675,692,708,725,741,758,775,791,808,824,840,857,874,891,908,924,941,958,975,991,1008,1025,1041,1058,1075,1091,1108,1125,1141,1191];[0,-1,-2,-3,-4,-5,-4,-21,-45,-73,-104,-143,-166,-181,-211,-225,-238,-250,-263,-271,-277,-278,-279,-280,-285,-287,-288,-289,-293,-301,-315,-336,-360,-379,-396,-416,-428,-436,-439,-440,-441,-443,-443,-444,-444];[0,2,4,6,8,10,13,51,93,137,188,250,301,339,377,393,410,422,435,443,449,450,452,454,460,464,464,465,470,483,510,536,561,580,593,606,614,621,623,624,625,626,628,628,629];55.74368037;Fish;Reptile;795;655;Clownfish;Fish;Thu Aug 06 2020 14:00:17 GMT+0200 (Mitteleuropäische Sommerzeit);1.60E+12;1.60E+12;5.289216667;45;main;2;Typical
2141;471;NA;1692;24;;Reptile;Correct;Graduated College;1.60E+12;164;männlich;Persian, german;1641;1.60E+12;[0,90,180,270,360,450,471,479,493,509,526,543,560,576,593,609,626,642,659,676,693,710,721,811,901,991,1081,1129,1143,1160,1175,1192,1209,1226,1242,1332,1422,1512,1602,1641];[0,0,0,0,0,0,0,0,1,4,-6,-44,-98,-135,-172,-186,-192,-195,-194,-180,-127,-22,43,148,253,358,463,517,513,507,502,500,500,499,498,498,498,498,498,499];[0,1,2,3,4,5,7,12,18,61,129,235,349,435,509,553,574,586,590,597,616,644,659,659,659,659,659,660,651,638,626,623,622,620,619,619,619,619,619,619];51.22499479;Reptile;Insect;796;661;Snake;Reptile;Thu Aug 06 2020 14:00:17 GMT+0200 (Mitteleuropäische Sommerzeit);1.60E+12;1.60E+12;5.289216667;40;main;3;Typical
2141;385;NA;1323;24;;Bird;Correct;Graduated College;1.60E+12;164;männlich;Persian, german;1172;1.60E+12;[0,90,180,270,360,385,392,407,422,439,456,472,489,506,523,539,556,572,589,606,622,639,656,673,689,705,722,739,755,772,789,805,822,838,855,872,885,949,957,971,988,1006,1022,1039,1056,1072,1088,1105,1122,1138,1155,1172];[0,0,0,0,0,2,14,44,57,81,85,88,93,99,105,112,117,114,85,46,-14,-81,-145,-199,-251,-268,-280,-290,-299,-313,-328,-336,-339,-347,-365,-371,-373,-391,-396,-407,-412,-417,-421,-424,-426,-427,-428,-431,-432,-433,-435,-435];[0,0,0,0,0,0,0,4,7,16,19,22,28,36,50,72,117,173,278,348,425,485,524,549,573,590,601,610,617,625,628,630,633,641,655,658,659,659,656,651,650,649,647,645,645,643,643,641,641,640,638,637];58.47478757;Bird;Amphibian;791;659;Eagle;Bird;Thu Aug 06 2020 14:00:17 GMT+0200 (Mitteleuropäische Sommerzeit);1.60E+12;1.60E+12;5.289216667;52;main;4;Typical
2141;409;NA;1662;24;;Fish;Correct;Graduated College;1.60E+12;164;männlich;Persian, german;1502;1.60E+12;[0,90,180,270,360,409,420,436,452,469,486,502,519,535,552,569,586,602,619,635,652,669,686,702,719,737,752,768,785,802,819,835,852,869,885,902,918,935,952,968,985,1001,1018,1034,1051,1068,1085,1102,1118,1134,1151,1168,1184,1201,1218,1234,1251,1268,1285,1303,1317,1334,1368,1417,1434,1451,1468,1485,1502];[0,0,0,0,0,1,3,8,12,15,20,24,32,39,46,52,56,59,60,60,56,52,46,38,28,14,-2,-14,-33,-45,-57,-68,-75,-82,-89,-95,-100,-112,-119,-134,-168,-223,-273,-333,-364,-387,-404,-415,-424,-431,-441,-455,-472,-477,-481,-486,-489,-491,-492,-492,-490,-489,-488,-488,-487,-486,-486,-486,-486];[0,0,0,0,0,-1,-1,-1,-1,-1,-1,1,3,7,13,21,31,46,65,86,111,126,141,158,178,199,219,233,254,269,282,293,301,308,315,320,325,335,343,358,387,422,452,477,488,498,510,521,529,537,545,554,565,570,575,581,585,589,593,601,605,609,610,612,613,614,615,616,617];55.23948262;Fish;Mammal;792;663;Tuna;Fish;Thu Aug 06 2020 14:00:17 GMT+0200 (Mitteleuropäische Sommerzeit);1.60E+12;1.60E+12;5.289216667;69;main;5;Typical
2141;229;NA;1958;24;;Mammal;Correct;Graduated College;1.60E+12;164;männlich;Persian, german;1679;1.60E+12;[0,90,180,229,249,339,377,393,401,414,430,447,463,480,497,513,530,547,564,580,596,613,630,647,663,680,697,713,802,813,829,846,862,879,896,913,929,946,963,979,996,1012,1029,1046,1062,1079,1096,1112,1129,1145,1162,1179,1196,1213,1229,1245,1262,1279,1296,1312,1329,1346,1362,1378,1395,1412,1428,1445,1462,1479,1495,1511,1528,1545,1563,1579,1596,1612,1679];[0,0,0,0,1,2,2,3,5,8,9,13,21,33,53,69,83,95,107,115,126,137,146,153,156,157,158,159,159,158,157,157,157,158,161,166,170,177,181,183,187,189,191,193,194,197,198,198,195,192,185,172,139,53,-77,-215,-335,-427,-444,-446,-448,-454,-463,-475,-491,-499,-505,-516,-527,-535,-539,-543,-547,-548,-551,-551,-552,-552,-552];[0,0,0,-1,-2,-2,-2,-3,-4,-4,-4,-3,3,14,30,45,55,66,80,98,136,172,206,233,248,253,258,262,265,266,271,277,286,295,313,335,362,394,420,436,457,463,468,472,478,485,491,500,511,518,525,531,534,542,542,526,514,516,517,518,520,527,536,544,554,560,565,570,576,582,587,594,605,625,636,643,648,650,651];73.29401042;Mammal;Reptile;791;664;Guineapig;Mammal;Thu Aug 06 2020 14:00:17 GMT+0200 (Mitteleuropäische Sommerzeit);1.60E+12;1.60E+12;5.289216667;79;main;6;Typical
2141;487;NA;2429;24;;Insect;Correct;Graduated College;1.60E+12;164;männlich;Persian, german;2239;1.60E+12;[0,90,180,270,360,450,487,495,508,524,541,557,574,591,608,628,641,659,674,691,708,724,741,757,773,863,953,964,975,991,1008,1041,1057,1074,1090,1107,1124,1141,1231,1321,1411,1501,1520,1540,1557,1573,1590,1606,1623,1640,1657,1673,1707,1723,1739,1756,1772,1862,1881,1890,1906,1923,1940,1956,1973,1989,2006,2022,2039,2056,2073,2155,2172,2189,2206,2223,2239];[0,0,0,0,0,0,1,0,-6,-49,-94,-153,-204,-258,-301,-342,-357,-383,-387,-395,-397,-398,-398,-398,-396,-427,-458,-462,-474,-487,-490,-490,-489,-478,-459,-431,-357,-238,-79,80,239,398,432,431,431,430,430,430,430,430,429,429,429,429,429,430,430,417,414,345,130,-117,-350,-508,-557,-558,-543,-517,-509,-507,-507,-507,-507,-506,-506,-505,-505];[0,1,2,3,4,5,6,19,37,125,213,302,378,447,498,549,573,617,623,632,635,635,636,643,657,658,659,659,655,651,649,648,646,643,643,643,645,659,659,659,659,659,661,655,651,650,649,647,646,644,643,641,640,638,633,629,625,623,623,615,595,579,567,557,547,544,551,570,579,583,585,594,603,610,615,618,619];83.82332184;Insect;Bird;794;661;Fly;Insect;Thu Aug 06 2020 14:00:17 GMT+0200 (Mitteleuropäische Sommerzeit);1.60E+12;1.60E+12;5.289216667;77;main;7;Typical
2141;325;NA;1599;24;;Insect;Correct;Graduated College;1.60E+12;164;männlich;Persian, german;1592;1.60E+12;[0,90,180,270,325,337,354,370,387,404,421,437,454,471,487,503,520,537,554,570,587,604,620,637,653,670,687,704,772,787,803,823,837,854,870,886,903,920,936,986,1003,1011,1101,1191,1281,1294,1320,1410,1500,1503,1521,1536,1552,1568,1592];[0,1,2,3,2,5,16,33,39,46,52,55,63,64,53,3,-53,-140,-217,-268,-305,-326,-340,-350,-355,-359,-365,-366,-366,-364,-362,-361,-357,-329,-273,-194,-139,-113,-113,-106,-13,69,184,299,414,430,429,429,429,428,427,427,426,425,425];[0,0,0,0,1,2,4,12,17,26,43,65,116,179,248,352,431,512,560,585,608,621,631,639,640,641,641,641,642,647,648,648,649,650,645,644,644,652,653,653,660,663,663,663,663,662,660,660,660,660,658,658,656,656,655];81.59266293;Insect;Mammal;789;666;Mosquito;Insect;Thu Aug 06 2020 14:00:17 GMT+0200 (Mitteleuropäische Sommerzeit);1.60E+12;1.60E+12;5.289216667;55;main;8;Typical
2141;356;NA;1620;24;;Amphibian;Correct;Graduated College;1.60E+12;164;männlich;Persian, german;1492;1.60E+12;[0,90,180,270,356,363,376,393,410,427,443,460,476,493,509,526,543,560,576,593,610,626,643,659,749,777,792,809,826,843,860,876,893,909,926,942,959,976,992,1009,1034,1042,1058,1075,1092,1109,1125,1142,1159,1175,1192,1208,1225,1242,1258,1275,1293,1309,1325,1342,1358,1375,1392,1409,1425,1442,1459,1492];[0,1,2,3,2,6,10,14,14,6,-14,-43,-90,-142,-223,-327,-374,-394,-404,-407,-410,-410,-410,-412,-410,-410,-376,-302,-229,-141,-30,80,164,233,281,293,300,304,308,309,308,299,250,156,12,-164,-303,-402,-465,-504,-530,-537,-542,-546,-549,-550,-551,-553,-554,-555,-557,-558,-558,-556,-555,-555,-555,-555];[0,0,0,0,1,4,10,34,58,86,131,184,252,333,430,537,570,585,592,595,598,599,600,601,602,602,613,625,636,639,643,651,651,640,629,623,618,614,614,614,614,610,602,602,601,598,593,585,585,585,590,594,600,605,608,609,610,611,613,614,617,622,627,630,632,633,634,635];70.22268799;Amphibian;Reptile;790;664;Frog;Amphibian;Thu Aug 06 2020 14:00:17 GMT+0200 (Mitteleuropäische Sommerzeit);1.60E+12;1.60E+12;5.289216667;68;main;9;Atypical
2141;31;NA;1661;24;;Fish;Incorrect;Graduated College;1.60E+12;164;männlich;Persian, german;1328;1.60E+12;[0,30,120,210,284,297,312,402,492,511,529,545,562,579,595,612,628,645,675,683,695,713,728,745,761,778,796,811,828,845,861,878,894,912,928,946,962,978,995,1011,1028,1045,1062,1079,1089,1161,1179,1195,1212,1228,1245,1294,1311,1328];[0,0,0,0,-1,-4,-8,-9,-10,-11,-50,-119,-208,-294,-367,-422,-502,-508,-508,-509,-510,-513,-514,-516,-516,-517,-521,-523,-524,-525,-527,-528,-529,-529,-529,-528,-528,-526,-522,-511,-483,-416,-322,-172,-90,386,430,451,465,476,479,480,481,483];[0,-1,-1,-1,-1,-4,-9,-3,3,4,66,147,227,301,367,431,527,535,536,539,543,557,561,568,572,575,589,595,599,601,603,608,613,619,623,623,624,626,628,631,634,640,646,656,665,659,639,632,630,628,627,627,627,627];78.73628847;Fish;Mammal;792;665;Seahorse;Mammal;Thu Aug 06 2020 14:00:17 GMT+0200 (Mitteleuropäische Sommerzeit);1.60E+12;1.60E+12;5.289216667;54;main;10;Atypical
2141;417;NA;1456;24;;Mammal;Incorrect;Graduated College;1.60E+12;164;männlich;Persian, german;1277;1.60E+12;[0,90,180,270,360,417,434,449,466,483,499,516,532,549,565,582,599,615,632,649,665,682,699,715,732,749,765,782,798,815,832,848,865,882,899,915,932,949,1039,1048,1065,1081,1098,1115,1131,1149,1165,1180,1213,1277];[0,-1,-2,-3,-4,-5,-22,-51,-87,-118,-147,-180,-218,-250,-262,-273,-284,-296,-309,-317,-325,-332,-343,-348,-352,-354,-362,-372,-391,-408,-422,-433,-442,-450,-458,-463,-465,-465,-465,-465,-465,-465,-465,-464,-464,-463,-462,-462,-462,-461];[0,0,0,0,0,2,6,18,51,74,104,139,187,231,253,274,297,326,358,388,408,422,443,455,465,475,491,513,551,576,596,615,635,651,659,663,664,665,663,663,661,658,655,652,650,649,648,647,646,647];54.79617531;Mammal;Fish;798;665;Seal;Fish;Thu Aug 06 2020 14:00:17 GMT+0200 (Mitteleuropäische Sommerzeit);1.60E+12;1.60E+12;5.289216667;50;main;11;Atypical
2141;276;NA;1433;24;;Mammal;Correct;Graduated College;1.60E+12;164;männlich;Persian, german;1193;1.60E+12;[0,90,180,270,276,294,384,386,394,410,427,444,460,477,494,510,527,543,560,577,593,610,627,643,660,677,693,710,727,744,760,777,793,810,827,844,860,876,893,983,1073,1074,1094,1110,1127,1144,1160,1176,1193];[0,0,0,0,1,2,3,3,5,9,15,20,23,28,50,74,116,163,198,209,220,236,261,312,399,427,433,433,416,352,260,113,26,-57,-147,-207,-242,-264,-290,-357,-424,-424,-428,-433,-436,-440,-444,-448,-451];[0,0,0,0,0,0,0,0,1,3,6,9,12,16,31,55,100,161,222,280,323,363,408,470,566,599,610,614,621,624,617,598,597,604,615,625,635,644,659,661,663,663,659,655,654,651,647,641,638];69.60269439;Mammal;Reptile;792;665;Elephant;Mammal;Thu Aug 06 2020 14:00:17 GMT+0200 (Mitteleuropäische Sommerzeit);1.60E+12;1.60E+12;5.289216667;49;main;12;Typical
2141;322;NA;2505;24;;Amphibian;Correct;Graduated College;1.60E+12;164;männlich;Persian, german;2287;1.60E+12;[0,90,180,270,321,329,340,357,373,390,407,423,440,457,473,490,506,523,540,556,573,590,606,623,640,656,673,689,706,723,739,756,773,789,806,823,839,856,873,889,907,923,940,955,972,989,1005,1022,1039,1056,1072,1089,1105,1122,1139,1156,1172,1189,1205,1222,1238,1255,1272,1288,1378,1468,1558,1591,1604,1621,1638,1655,1672,1687,1704,1720,1737,1753,1770,1787,1803,1831,1839,1853,1870,1960,2050,2140,2230,2234,2254,2271,2287];[0,1,2,3,3,6,9,18,31,40,46,48,48,48,47,45,41,33,23,10,-7,-14,-20,-26,-33,-40,-57,-72,-88,-96,-100,-114,-136,-169,-217,-288,-332,-352,-364,-377,-390,-399,-410,-416,-417,-418,-418,-418,-419,-419,-419,-419,-420,-420,-420,-420,-420,-419,-417,-407,-384,-328,-238,-130,72,274,476,549,520,454,372,277,180,104,49,16,-24,-58,-96,-120,-124,-119,-106,-80,68,188,308,428,548,552,540,530,524];[0,1,2,3,4,9,15,28,46,63,86,120,134,143,147,150,152,155,156,156,159,160,163,168,172,179,191,200,212,219,224,241,267,299,339,392,424,440,455,474,492,504,521,529,535,538,541,548,552,553,555,557,561,568,575,579,580,584,586,595,608,626,643,655,656,657,658,657,647,628,616,615,626,633,643,648,648,644,640,639,638,638,638,640,657,656,655,654,653,653,635,618,609];81.10446762;Amphibian;Fish;784;658;Seaturtle;Amphibian;Thu Aug 06 2020 14:00:17 GMT+0200 (Mitteleuropäische Sommerzeit);1.60E+12;1.60E+12;5.289216667;93;main;13;Atypical
2141;448;NA;1472;24;;Insect;Correct;Graduated College;1.60E+12;164;männlich;Persian, german;1382;1.60E+12;[0,90,180,270,360,448,465,491,498,515,531,547,564,581,598,615,632,648,665,682,698,714,731,748,765,781,798,814,831,848,864,881,898,914,980,1002,1020,1031,1047,1063,1080,1097,1114,1130,1147,1164,1181,1197,1214,1247,1264,1281,1371,1382];[0,0,0,0,0,1,1,-12,-37,-98,-174,-261,-332,-392,-423,-432,-432,-431,-422,-382,-352,-208,-112,-15,76,137,188,244,321,478,563,615,632,635,636,637,638,638,636,630,623,613,602,593,587,580,575,572,571,568,568,567,567,567];[0,0,0,0,0,0,4,29,61,121,210,305,369,436,489,516,524,529,537,550,555,570,581,593,601,602,599,593,578,565,565,573,575,575,575,576,577,579,584,589,595,601,611,616,621,626,630,633,633,635,637,637,637,637];45.36510679;Insect;Amphibian;780;671;Ant;Insect;Thu Aug 06 2020 14:00:17 GMT+0200 (Mitteleuropäische Sommerzeit);1.60E+12;1.60E+12;5.289216667;54;main;14;Typical
2141;527;NA;2060;24;;Mammal;Correct;Graduated College;1.60E+12;164;männlich;Persian, german;1881;1.60E+12;[0,90,180,270,360,450,527,536,550,567,583,600,617,633,650,666,683,699,716,733,750,766,783,799,816,833,850,866,883,900,916,932,949,966,982,999,1016,1033,1049,1067,1082,1099,1116,1133,1149,1166,1183,1199,1215,1232,1249,1265,1282,1298,1316,1332,1349,1366,1382,1399,1416,1432,1449,1465,1481,1499,1516,1532,1549,1565,1582,1599,1615,1632,1649,1666,1682,1749,1765,1781,1798,1815,1831,1848,1864,1881];[0,1,2,3,4,5,4,12,20,35,41,49,56,69,88,108,142,156,164,167,169,170,170,169,167,164,161,157,152,148,147,150,156,196,234,291,332,347,348,349,352,365,383,397,406,413,418,422,424,426,428,429,431,432,433,434,434,434,432,421,385,284,127,-66,-329,-427,-448,-450,-451,-452,-454,-456,-458,-463,-467,-468,-469,-470,-470,-470,-471,-471,-471,-472,-472,-472];[0,1,2,3,4,5,7,19,35,75,91,107,120,135,147,162,188,206,223,240,258,277,295,315,333,359,379,401,420,435,440,445,449,466,476,493,506,511,511,511,509,503,503,509,519,534,550,562,571,575,581,591,602,607,623,627,630,631,633,639,650,655,651,643,632,633,637,640,646,650,653,655,658,662,665,667,668,668,667,664,661,657,651,647,642,639];87.09376053;Mammal;Amphibian;788;669;Cangaroo;Mammal;Thu Aug 06 2020 14:00:17 GMT+0200 (Mitteleuropäische Sommerzeit);1.60E+12;1.60E+12;5.289216667;86;main;15;Typical
2141;464;NA;1259;24;;Mammal;Correct;Graduated College;1.60E+12;164;männlich;Persian, german;1102;1.60E+12;[0,90,180,270,360,450,464,472,486,503,520,536,553,570,586,603,619,636,652,670,686,703,719,736,753,769,786,803,819,837,853,943,969,1018,1036,1058,1102];[0,1,2,3,4,5,4,21,60,107,159,203,228,243,258,278,318,352,370,378,382,384,386,391,398,406,410,416,422,425,426,426,426,426,426,426,426];[0,1,2,3,4,5,5,25,80,156,246,333,388,418,444,470,512,540,554,560,564,565,568,572,580,588,593,600,605,608,608,609,609,611,612,613,614];55.10099107;Mammal;Amphibian;794;658;Cow;Mammal;Thu Aug 06 2020 14:00:17 GMT+0200 (Mitteleuropäische Sommerzeit);1.60E+12;1.60E+12;5.289216667;37;main;16;Typical
2141;324;NA;1191;24;;Bird;Correct;Graduated College;1.60E+12;164;männlich;Persian, german;986;1.60E+12;[0,90,180,270,324,338,354,370,420,473,487,504,520,537,553,570,587,604,620,637,653,670,687,703,720,738,753,770,786,804,820,837,853,870,953,970,986];[0,0,0,0,0,0,1,2,3,4,4,-9,-29,-67,-125,-185,-249,-311,-369,-457,-499,-526,-539,-543,-544,-545,-546,-551,-553,-554,-555,-557,-557,-558,-559,-560,-560];[0,0,0,0,-1,-2,-3,-4,-5,-1,11,56,102,161,231,298,357,414,462,524,557,581,595,599,599,599,601,605,608,609,609,610,612,613,614,615,616];47.67976597;Bird;Mammal;785;663;Dove;Bird;Thu Aug 06 2020 14:00:17 GMT+0200 (Mitteleuropäische Sommerzeit);1.60E+12;1.60E+12;5.289216667;37;main;17;Typical
2141;464;NA;1769;24;;Mammal;Correct;Graduated College;1.60E+12;164;männlich;Persian, german;1685;1.60E+12;[0,90,180,270,360,450,464,474,491,507,524,540,557,574,590,607,624,641,658,674,691,707,724,740,757,772,789,879,918,926,940,956,973,1063,1082,1089,1106,1123,1140,1157,1174,1190,1280,1370,1433,1455,1472,1489,1506,1523,1540,1556,1623,1685];[0,0,0,0,0,0,0,-1,-1,-5,-1,19,68,129,201,283,336,365,379,385,390,395,400,404,406,407,408,407,407,403,401,399,398,392,391,363,242,75,-114,-277,-389,-430,-447,-464,-476,-477,-477,-478,-478,-478,-478,-478,-478,-478];[0,1,2,3,4,5,7,15,36,81,148,239,366,438,512,567,600,614,620,623,624,626,628,630,631,632,633,632,632,631,630,628,628,626,625,618,604,589,589,599,628,657,657,657,656,653,648,644,640,636,632,631,632,632];76.33879865;Mammal;Fish;797;658;Dolphin;Mammal;Thu Aug 06 2020 14:00:17 GMT+0200 (Mitteleuropäische Sommerzeit);1.60E+12;1.60E+12;5.289216667;54;main;18;Atypical
2141;26;NA;1198;24;;Mammal;Correct;Graduated College;1.60E+12;164;männlich;Persian, german;1024;1.60E+12;[0,25,97,187,277,367,378,393,408,425,442,458,475,492,508,525,541,558,575,591,608,625,641,658,675,691,708,775,792,808,825,915,917,991,1008,1024];[0,0,0,0,0,0,0,2,7,14,24,27,19,9,-1,-13,-21,-42,-70,-115,-176,-255,-356,-445,-498,-505,-506,-509,-511,-517,-519,-519,-519,-518,-518,-518];[0,-1,0,0,0,0,1,3,12,35,91,155,223,278,315,360,387,427,465,510,541,567,600,623,639,643,643,645,647,658,660,659,659,653,652,651];51.68880609;Mammal;Bird;785;665;Zebra;Mammal;Thu Aug 06 2020 14:00:17 GMT+0200 (Mitteleuropäische Sommerzeit);1.60E+12;1.60E+12;5.289216667;36;main;19;Typical
2141;361;NA;1048;24;;Capital;Correct;Graduated College;1.60E+12;164;männlich;Persian, german;901;1.60E+12;[0,90,180,270,360,361,368,380,397,413,430,446,463,480,497,513,530,546,563,579,596,614,630,647,663,680,697,713,729,746,763,780,830,901];[0,0,0,0,0,1,4,8,15,24,36,59,85,128,187,243,305,344,356,359,364,369,374,383,394,408,426,445,452,458,460,461,462,462];[0,0,0,0,0,0,0,0,1,4,10,29,65,142,243,363,467,541,584,604,612,615,617,619,623,627,633,636,636,635,632,632,632,633];53.95002176;Non-Capital;Capital;789;657;Paris;Capital;Thu Aug 06 2020 14:00:17 GMT+0200 (Mitteleuropäische Sommerzeit);1.60E+12;1.60E+12;5.289216667;34;exploration;1;Typical
2141;305;NA;1364;24;;Capital;Correct;Graduated College;1.60E+12;164;männlich;Persian, german;1204;1.60E+12;[0,90,180,270,305,322,338,355,371,388,405,422,438,455,471,488,505,521,538,555,572,638,655,671,688,705,721,737,755,771,788,805,822,838,855,871,887,904,921,937,954,972,987,1004,1020,1037,1054,1071,1087,1104,1120,1137,1204];[0,0,0,0,1,8,15,17,10,-18,-55,-113,-189,-290,-442,-511,-556,-578,-586,-588,-588,-578,-538,-467,-380,-293,-164,-84,5,93,159,200,220,227,228,234,240,245,251,258,266,272,277,284,289,296,306,327,360,386,399,402,404];[0,0,0,0,0,9,29,85,143,210,283,351,402,459,519,556,585,601,612,616,618,616,612,609,609,609,602,595,585,579,578,578,579,581,581,582,582,582,583,583,584,587,590,592,595,597,602,610,617,619,621,622,622];65.06616905;Non-Capital;Capital;784;657;Beijing;Capital;Thu Aug 06 2020 14:00:17 GMT+0200 (Mitteleuropäische Sommerzeit);1.60E+12;1.60E+12;5.289216667;53;exploration;2;Atypical
2141;173;NA;1518;24;;Capital;Correct;Graduated College;1.60E+12;164;männlich;Persian, german;1405;1.60E+12;[0,90,173,189,206,296,330,339,356,373,389,406,422,439,455,472,489,506,523,539,556,572,589,606,622,639,656,673,689,705,722,739,755,772,789,805,822,838,855,872,888,905,922,942,955,971,988,1011,1066,1074,1088,1104,1121,1138,1155,1171,1188,1205,1221,1238,1255,1271,1288,1304,1321,1405];[0,-5,-9,-25,-28,-28,-28,-23,-6,14,38,62,78,90,97,100,106,114,122,127,134,142,148,154,160,167,173,178,182,193,204,215,224,233,245,262,287,314,340,348,351,351,352,353,354,358,360,360,364,366,369,373,376,377,377,378,378,381,384,388,389,390,390,390,390,390];[0,-2,-4,-14,-15,-16,-16,-18,-18,-12,4,24,43,69,89,109,132,161,186,209,232,266,299,314,324,333,340,346,352,367,383,396,408,416,428,445,468,490,512,524,527,528,528,528,528,530,532,533,535,537,540,544,550,555,558,561,568,577,589,602,608,612,616,620,621,622];57.20804084;Non-Capital;Capital;790;654;Ottawa;Capital;Thu Aug 06 2020 14:00:17 GMT+0200 (Mitteleuropäische Sommerzeit);1.60E+12;1.60E+12;5.289216667;66;exploration;3;Atypical
2141;518;NA;1706;24;;Non-Capital;Correct;Graduated College;1.60E+12;164;männlich;Persian, german;1591;1.60E+12;[0,90,180,270,360,450,518,526,542,559,576,592,609,625,642,658,675,692,709,725,742,758,775,791,808,825,841,857,874,891,907,925,941,958,1041,1058,1074,1091,1108,1125,1141,1158,1174,1191,1208,1224,1314,1404,1418,1441,1458,1474,1491,1508,1591];[0,-1,-2,-3,-4,-5,-3,-7,-21,-45,-68,-84,-99,-112,-131,-166,-220,-261,-303,-339,-367,-383,-402,-412,-422,-434,-445,-454,-461,-467,-474,-483,-488,-489,-490,-491,-495,-500,-503,-503,-504,-506,-507,-505,-505,-504,-502,-500,-500,-495,-491,-490,-489,-488,-487];[0,1,2,3,4,5,7,16,40,73,100,119,135,151,170,203,253,292,333,363,384,392,404,412,420,431,442,449,454,460,464,472,476,476,477,482,491,505,523,541,562,585,611,638,648,650,649,648,648,642,634,632,631,630,632];49.03424338;Non-Capital;Capital;799;650;Dubrovnik;Non-Capital;Thu Aug 06 2020 14:00:17 GMT+0200 (Mitteleuropäische Sommerzeit);1.60E+12;1.60E+12;5.289216667;55;exploration;4;Atypical
2141;394;NA;1042;24;;Capital;Correct;Graduated College;1.60E+12;164;männlich;Persian, german;856;1.60E+12;[0,90,180,270,360,394,407,423,440,456,473,490,506,523,613,703,754,774,790,807,823,840,856];[0,0,0,0,0,0,0,-1,9,57,182,271,343,413,456,499,523,524,524,524,524,523,523];[0,0,0,0,0,1,10,47,126,254,451,563,621,663,662,661,661,653,647,643,639,634,633];55.47870918;Non-Capital;Capital;799;665;Rom;Capital;Thu Aug 06 2020 14:00:17 GMT+0200 (Mitteleuropäische Sommerzeit);1.60E+12;1.60E+12;5.289216667;23;exploration;5;Typical
2141;432;NA;1362;24;;Non-Capital;Correct;Graduated College;1.60E+12;164;männlich;Persian, german;1336;1.60E+12;[0,90,180,270,360,432,440,454,470,487,503,520,537,554,581,590,604,620,637,653,670,686,703,720,736,753,769,786,803,820,836,853,870,886,903,933,941,957,970,986,1002,1019,1036,1053,1069,1086,1103,1120,1136,1153,1169,1259,1336];[0,-1,-2,-3,-4,-7,-38,-77,-157,-242,-322,-338,-344,-344,-343,-336,-325,-261,-182,-83,26,143,268,384,502,587,645,659,666,673,679,684,687,689,689,689,689,688,687,683,679,673,671,671,668,667,666,665,663,663,663,662,661];[0,3,6,9,12,13,55,101,193,283,366,385,394,395,397,403,410,441,467,490,506,523,534,534,531,526,542,550,556,566,573,576,581,582,583,585,587,588,590,595,599,604,605,607,607,609,611,613,616,617,619,619,619];41.52078929;Non-Capital;Capital;785;665;Barcelona;Non-Capital;Thu Aug 06 2020 14:00:17 GMT+0200 (Mitteleuropäische Sommerzeit);1.60E+12;1.60E+12;5.289216667;53;exploration;6;Atypical
2141;18;NA;919;24;;Capital;Correct;Graduated College;1.60E+12;164;männlich;Persian, german;784;1.60E+12;[0,18,108,198,275,285,302,318,335,352,369,384,401,418,434,451,468,485,501,518,534,551,567,584,601,618,635,651,668,751,784];[0,0,0,0,1,4,16,27,35,35,15,-37,-103,-181,-296,-361,-422,-465,-486,-494,-496,-497,-499,-500,-505,-513,-519,-521,-521,-521,-521];[0,0,0,0,1,3,12,23,35,61,134,235,324,397,476,516,544,568,578,585,587,588,589,591,596,605,615,617,618,619,620];49.93613744;Non-Capital;Capital;789;658;London;Capital;Thu Aug 06 2020 14:00:17 GMT+0200 (Mitteleuropäische Sommerzeit);1.60E+12;1.60E+12;5.289216667;31;exploration;7;Typical
2141;236;NA;1244;24;;Capital;Correct;Graduated College;1.60E+12;164;männlich;Persian, german;1183;1.60E+12;[0,90,180,236,326,383,400,417,433,450,467,483,500,516,533,550,567,583,600,617,635,650,666,683,700,716,733,750,766,783,799,816,833,850,910,918,932,949,966,983,1000,1033,1049,1066,1083,1099,1166,1183];[0,0,0,-1,1,2,7,16,23,26,26,23,23,26,39,49,54,60,73,96,172,203,274,291,302,314,331,343,348,349,353,361,366,367,370,374,377,383,385,386,387,387,390,391,392,392,391,391];[0,0,0,0,1,1,7,24,49,73,91,114,143,172,233,284,315,331,345,361,399,415,451,464,473,485,501,511,514,515,518,527,534,535,537,543,550,573,592,604,608,609,616,620,622,623,618,617];56.72933683;Non-Capital;Capital;797;663;Moscow;Capital;Thu Aug 06 2020 14:00:17 GMT+0200 (Mitteleuropäische Sommerzeit);1.60E+12;1.60E+12;5.289216667;48;exploration;8;Typical
2141;269;NA;1590;24;;Non-Capital;Correct;Graduated College;1.60E+12;164;männlich;Persian, german;1590;1.60E+12;[0,90,180,269,282,298,315,331,348,365,382,399,415,431,448,464,481,498,515,532,548,564,581,597,614,631,648,665,681,698,714,731,747,764,781,797,814,831,847,864,881,971,997,1014,1031,1047,1064,1081,1097,1114,1131,1147,1164,1181,1197,1214,1230,1248,1264,1281,1297,1347,1363,1444,1450,1464,1480,1570,1590];[0,0,0,1,1,6,13,17,19,21,26,29,29,27,15,5,-3,-15,-32,-63,-115,-192,-287,-303,-328,-332,-338,-345,-359,-373,-383,-392,-398,-406,-415,-427,-437,-448,-455,-463,-464,-464,-464,-464,-463,-461,-452,-440,-413,-305,-199,-63,84,207,288,345,369,393,409,426,430,431,432,432,432,431,430,429,429];[0,0,0,0,1,11,23,34,41,47,62,86,127,175,246,294,331,375,415,443,465,483,493,495,500,505,511,520,535,553,562,568,573,585,599,613,626,637,644,651,652,651,651,649,645,639,630,623,622,639,643,651,657,655,645,631,622,613,607,603,602,602,602,603,606,608,608,608,608];83.4361305;Non-Capital;Capital;799;661;Las Vegas;Non-Capital;Thu Aug 06 2020 14:00:17 GMT+0200 (Mitteleuropäische Sommerzeit);1.60E+12;1.60E+12;5.289216667;69;exploration;9;Typical
2141;142;NA;1573;24;;Non-Capital;Correct;Graduated College;1.60E+12;164;männlich;Persian, german;1351;1.60E+12;[0,90,142,232,322,371,385,401,418,435,452,468,485,501,518,534,551,568,584,601,618,634,651,668,684,701,751,769,784,800,816,833,850,866,883,901,917,934,951,968,1001,1018,1108,1198,1234,1251,1268,1284,1300,1317,1334,1351];[0,-1,-1,-2,-3,-3,-6,-13,-22,-26,-32,-40,-57,-82,-146,-182,-198,-209,-222,-242,-277,-329,-380,-436,-446,-446,-446,-445,-443,-440,-434,-429,-426,-425,-425,-426,-428,-430,-431,-433,-432,-412,-39,334,483,484,486,486,487,489,491,492];[0,-1,-1,2,5,6,17,41,69,86,100,115,141,189,291,341,363,375,389,405,427,453,475,500,505,506,507,517,533,552,569,584,596,601,608,623,630,648,654,657,657,659,658,657,657,656,653,652,649,645,637,635];84.58496469;Non-Capital;Capital;786;659;Saigon;Non-Capital;Thu Aug 06 2020 14:00:17 GMT+0200 (Mitteleuropäische Sommerzeit);1.60E+12;1.60E+12;5.289216667;52;exploration;10;Atypical
2141;330;NA;1630;24;;Non-Capital;Correct;Graduated College;1.60E+12;164;männlich;Persian, german;1522;1.60E+12;[0,90,180,270,330,341,357,374,390,407,424,440,457,474,490,507,523,540,557,573,590,607,623,640,657,673,690,707,723,786,793,806,823,839,856,873,889,906,923,940,957,973,989,1006,1023,1040,1056,1072,1089,1179,1269,1342,1356,1372,1389,1406,1422,1440,1455,1472,1522];[0,0,0,0,1,6,16,26,37,43,40,39,39,39,39,39,41,46,58,107,164,218,271,302,313,318,324,335,339,339,336,333,319,295,238,215,211,211,199,150,48,-85,-326,-492,-599,-621,-621,-618,-602,-595,-588,-583,-581,-579,-578,-576,-575,-573,-573,-571,-570];[0,1,2,3,4,16,48,88,144,191,234,260,284,301,319,340,368,400,425,469,500,520,533,542,547,548,550,552,554,556,556,559,565,568,576,583,586,588,598,612,620,622,625,624,634,640,643,648,658,657,656,656,652,650,648,647,645,642,640,638,639];68.00060625;Non-Capital;Capital;793;658;Sydney;Non-Capital;Thu Aug 06 2020 14:00:17 GMT+0200 (Mitteleuropäische Sommerzeit);1.60E+12;1.60E+12;5.289216667;61;exploration;11;Atypical
2141;395;NA;1316;24;;Non-Capital;Correct;Graduated College;1.60E+12;164;männlich;Persian, german;1173;1.60E+12;[0,90,180,270,360,395,409,424,441,458,474,491,507,524,540,557,573,591,607,624,641,657,674,690,707,724,740,757,773,790,807,823,840,857,873,890,906,923,940,956,1028,1040,1056,1073,1090,1107,1123,1140,1157,1173];[0,1,2,3,4,3,11,18,26,38,58,81,108,157,221,280,316,326,329,330,330,324,316,290,239,174,93,8,-94,-222,-356,-502,-534,-545,-546,-548,-551,-556,-561,-562,-563,-565,-569,-573,-575,-576,-576,-576,-577,-577];[0,0,0,0,0,1,10,22,43,82,134,188,250,321,401,454,478,486,488,490,492,502,511,530,540,550,559,561,570,574,586,598,602,604,604,604,604,604,602,602,602,602,606,610,616,618,619,620,621,622];48.61061734;Non-Capital;Capital;798;664;Salzburg;Non-Capital;Thu Aug 06 2020 14:00:17 GMT+0200 (Mitteleuropäische Sommerzeit);1.60E+12;1.60E+12;5.289216667;50;exploration;12;Typical
2141;198;NA;1451;24;;Non-Capital;Correct;Graduated College;1.60E+12;164;männlich;Persian, german;1317;1.60E+12;[0,90,180,198,205,219,235,252,268,284,301,318,335,352,368,385,401,418,435,451,468,484,502,518,533,623,713,803,833,851,869,886,901,918,934,951,1041,1060,1068,1083,1105,1121,1134,1150,1167,1184,1201,1217,1234,1250,1267,1284,1300,1317];[0,0,0,0,3,7,19,35,68,114,162,195,221,243,260,269,288,303,321,338,351,363,372,380,388,396,404,412,415,352,223,26,-172,-370,-410,-413,-413,-413,-413,-414,-415,-415,-416,-417,-418,-420,-421,-426,-430,-434,-439,-442,-444,-445];[0,0,0,1,4,8,24,60,120,200,280,353,411,456,488,506,532,550,568,586,602,616,628,640,653,653,653,653,653,628,613,611,619,644,648,649,647,647,646,644,643,642,640,639,638,636,636,636,636,636,636,635,635,635];62.1834892;Non-Capital;Capital;801;658;Rio de Janeiro;Non-Capital;Thu Aug 06 2020 14:00:17 GMT+0200 (Mitteleuropäische Sommerzeit);1.60E+12;1.60E+12;5.289216667;54;exploration;13;Atypical
2141;68;NA;1340;24;;Capital;Correct;Graduated College;1.60E+12;164;männlich;Persian, german;1117;1.60E+12;[0,68,158,214,229,238,251,268,285,301,318,335,352,368,384,401,418,434,451,468,485,501,518,534,557,567,584,601,618,634,651,667,683,700,717,734,751,767,784,800,817,833,849,866,883,973,984,1000,1017,1033,1050,1067,1084,1101,1117];[0,-1,-1,-1,1,3,9,16,26,35,43,51,59,63,80,111,126,139,167,194,216,232,249,251,252,254,263,276,286,289,289,291,297,308,319,328,334,335,336,330,321,319,317,316,315,324,325,331,341,351,356,361,365,366,367];[0,0,-1,-1,-1,-1,4,11,25,43,69,103,145,196,256,329,369,408,453,494,519,536,546,548,548,548,549,556,561,563,564,565,569,576,585,596,605,613,619,633,640,642,644,644,645,638,637,634,633,633,634,637,638,638,638];62.0273937;Non-Capital;Capital;797;659;Berlin;Capital;Thu Aug 06 2020 14:00:17 GMT+0200 (Mitteleuropäische Sommerzeit);1.60E+12;1.60E+12;5.289216667;55;exploration;14;Typical
2140;NA;;61982;26;;NA;NA;Graduated College;1.60E+12;164;weiblich;italian;NA;NA;NA;NA;NA;NA;Mouse;Touch Pad;NA;NA;Are you using a mouse or a touch pad in this experiment?;Touch;Thu Aug 06 2020 12:34:54 GMT+0200 (Ora legale dell’Europa centrale);1.60E+12;NA;9.042666667;NA;mouse_question;1;NA
2140;NA;;2989;26;;NA;NA;Graduated College;1.60E+12;164;weiblich;italian;NA;NA;NA;NA;NA;NA;Left;Right;NA;NA;Are you using your left or right hand in this experiment?;Right;Thu Aug 06 2020 12:34:54 GMT+0200 (Ora legale dell’Europa centrale);1.60E+12;NA;9.042666667;NA;hand_question;1;NA
2140;927;NA;2099;26;;Mammal;Correct;Graduated College;1.60E+12;164;weiblich;italian;1800;1.60E+12;[0,90,180,270,360,450,540,630,720,810,900,925,933,950,965,983,1000,1016,1033,1050,1067,1083,1099,1116,1133,1150,1240,1326,1334,1349,1365,1384,1400,1417,1433,1449,1466,1483,1499,1516,1533,1549,1566,1583,1600,1617,1632,1650,1667,1683,1700,1716,1733,1750,1766,1783,1800];[0,0,0,0,0,0,0,0,0,0,0,0,0,3,7,10,11,6,-19,-54,-96,-126,-149,-170,-178,-182,-184,-186,-194,-203,-226,-288,-325,-367,-388,-403,-411,-418,-421,-422,-422,-423,-423,-423,-424,-424,-424,-424,-424,-424,-424,-425,-425,-425,-425,-426,-426];[0,0,0,0,0,0,0,0,0,0,0,0,4,13,28,49,89,130,195,255,321,370,407,437,450,457,457,457,457,459,470,512,541,578,600,616,624,631,634,636,638,640,643,645,647,647,648,649,652,655,659,661,663,665,667,668,671];57.53306461;Mammal;Insect;746;719;Lion;Mammal;Thu Aug 06 2020 12:34:54 GMT+0200 (Ora legale dell’Europa centrale);1.60E+12;1.60E+12;9.042666667;57;training;1;Typical
2140;1039;NA;4138;26;;Mammal;Correct;Graduated College;1.60E+12;164;weiblich;italian;3762;1.60E+12;[0,90,180,270,360,450,540,630,720,810,900,990,1038,1046,1063,1079,1096,1112,1129,1146,1161,1179,1195,1212,1228,1245,1262,1278,1295,1313,1329,1346,1436,1526,1616,1706,1796,1886,1976,2066,2156,2246,2336,2426,2516,2606,2696,2786,2876,2966,2983,2996,3012,3028,3045,3062,3078,3096,3112,3130,3145,3162,3179,3196,3213,3303,3393,3424,3431,3445,3462,3479,3496,3511,3529,3546,3562,3578,3595,3612,3629,3646,3663,3679,3696,3712,3728,3746,3762];[0,0,0,0,0,0,0,0,0,0,0,0,0,0,0,-3,-3,-3,4,19,41,76,100,130,159,187,203,211,219,224,230,236,236,236,236,236,236,236,236,236,236,236,236,236,236,236,236,236,236,236,236,234,225,199,162,119,86,31,-1,-29,-53,-68,-82,-90,-100,-103,-106,-106,-116,-125,-141,-159,-200,-216,-265,-293,-311,-331,-346,-359,-369,-379,-389,-399,-404,-408,-411,-414,-414];[0,0,0,0,0,0,0,0,0,0,0,0,1,5,17,51,98,158,217,271,322,390,423,463,498,528,546,557,569,578,587,599,599,599,599,599,599,599,599,599,599,599,599,599,599,599,599,599,599,599,599,599,601,606,612,621,626,633,635,635,635,632,628,627,623,623,623,624,628,631,635,638,643,644,648,650,651,651,651,652,653,655,658,661,663,665,667,668,669];88.53457446;Mammal;Bird;749;724;Bat;Mammal;Thu Aug 06 2020 12:34:54 GMT+0200 (Ora legale dell’Europa centrale);1.60E+12;1.60E+12;9.042666667;89;training;2;Typical
2140;683;NA;1866;26;;Mammal;Correct;Graduated College;1.60E+12;164;weiblich;italian;1294;1.60E+12;[0,90,180,270,360,450,540,630,683,693,710,727,744,761,777,793,809,826,843,860,875,894,910,1000,1090,1140,1148,1159,1177,1193,1210,1227,1243,1259,1276,1294];[0,0,0,0,0,0,0,0,0,0,-5,-22,-38,-56,-70,-91,-113,-134,-151,-161,-170,-175,-176,-176,-176,-177,-180,-185,-197,-241,-279,-331,-361,-391,-413,-419];[0,1,2,3,4,5,6,7,6,15,65,144,223,303,353,417,475,521,550,562,570,573,573,573,573,573,573,574,579,598,615,640,653,666,673,675];61.68790677;Mammal;Amphibian;745;720;Rabbit;Mammal;Thu Aug 06 2020 12:34:54 GMT+0200 (Ora legale dell’Europa centrale);1.60E+12;1.60E+12;9.042666667;36;training;3;Typical
2140;1317;NA;5927;26;;Reptile;Incorrect;Graduated College;1.60E+12;164;weiblich;italian;5783;1.60E+12;[0,90,180,270,360,450,540,630,720,810,900,990,1080,1170,1260,1317,1334,1350,1368,1385,1401,1418,1434,1451,1468,1483,1500,1517,1535,1550,1568,1584,1601,1617,1634,1651,1668,1684,1774,1864,1954,2044,2134,2224,2314,2404,2494,2549,2556,2568,2584,2601,2618,2634,2651,2667,2684,2700,2718,2734,2751,2768,2785,2801,2818,2834,2851,2867,2884,2901,2917,2933,2952,2968,2984,3000,3017,3035,3052,3101,3191,3281,3343,3383,3435,3485,3503,3552,3608,3656,3704,3768,3792,3835,3889,3953,4025,4068,4089,4135,4183,4201,4291,4381,4471,4555,4600,4617,4633,4651,4667,4685,4700,4719,4734,4751,4767,4784,4802,4818,4835,4851,4867,4957,5047,5060,5068,5084,5101,5118,5134,5152,5167,5184,5201,5291,5381,5438,5451,5468,5484,5501,5517,5533,5551,5568,5584,5601,5618,5634,5652,5668,5684,5701,5734,5783];[0,0,0,0,0,0,0,0,0,0,0,0,0,0,0,0,7,16,29,49,68,85,99,105,109,110,110,110,110,110,110,111,111,111,111,111,111,112,112,112,112,112,112,112,112,112,112,112,116,119,129,147,162,178,197,216,239,261,287,296,306,313,319,324,327,330,333,334,336,337,338,339,341,342,342,343,343,343,343,344,344,344,344,344,344,344,344,344,344,344,344,344,343,343,343,343,343,343,343,343,343,343,343,343,343,342,342,342,342,341,339,335,324,310,282,253,218,178,153,122,100,82,74,74,74,74,66,55,15,-17,-92,-170,-245,-290,-343,-343,-343,-344,-346,-349,-353,-359,-368,-377,-390,-395,-402,-404,-407,-408,-409,-410,-410,-410,-411,-411];[0,0,0,0,0,0,0,0,0,0,0,0,0,0,0,0,6,13,26,50,81,123,169,206,245,277,308,350,383,403,423,440,452,460,470,478,494,499,499,499,499,499,499,499,499,499,499,499,500,501,504,509,513,517,523,530,542,556,579,589,602,611,620,630,638,644,650,655,660,663,667,670,675,677,678,679,680,680,680,680,680,680,680,680,679,679,679,679,678,678,678,678,678,677,677,677,676,676,676,676,676,676,676,676,676,676,676,676,676,676,676,677,679,682,689,696,704,712,716,719,719,717,714,714,714,714,714,714,714,715,719,721,721,721,720,720,720,720,720,720,719,717,714,710,703,700,696,694,693,692,691,690,690,690,690,689];79.31547227;Reptile;Amphibian;746;726;Salamander;Amphibian;Thu Aug 06 2020 12:34:54 GMT+0200 (Ora legale dell’Europa centrale);1.60E+12;1.60E+12;9.042666667;156;main;1;Atypical
2140;474;NA;2507;26;;Fish;Correct;Graduated College;1.60E+12;164;weiblich;italian;2166;1.60E+12;[0,90,180,270,360,450,474,481,497,514,530,548,564,581,597,614,631,648,664,681,697,714,730,747,837,927,1017,1107,1176,1183,1197,1214,1230,1247,1264,1281,1297,1314,1330,1348,1365,1381,1398,1414,1431,1447,1464,1480,1497,1514,1604,1694,1761,1769,1781,1797,1814,1831,1847,1864,1881,1897,1914,1932,1948,1964,1981,1998,2014,2031,2048,2064,2080,2097,2114,2131,2148,2166];[0,0,0,0,0,0,1,3,6,15,21,28,34,39,43,46,49,50,53,55,58,61,67,69,69,69,69,69,69,75,81,104,135,169,205,230,252,268,275,280,281,281,267,246,201,165,115,53,24,10,10,10,10,4,-4,-26,-51,-94,-155,-217,-255,-296,-327,-343,-353,-359,-363,-368,-372,-376,-379,-382,-384,-386,-388,-390,-391,-391];[0,0,0,0,0,0,1,4,7,21,31,46,67,94,134,172,211,232,268,293,319,345,377,386,386,386,386,386,386,392,398,417,442,464,485,498,509,519,527,536,549,559,576,594,628,651,678,690,687,679,679,679,679,680,682,687,692,699,705,707,707,706,700,697,693,691,688,685,683,680,680,678,677,677,676,676,676,676];83.86914925;Fish;Amphibian;747;726;Tuna;Fish;Thu Aug 06 2020 12:34:54 GMT+0200 (Ora legale dell’Europa centrale);1.60E+12;1.60E+12;9.042666667;78;main;2;Typical
2140;563;NA;3218;26;;Mammal;Correct;Graduated College;1.60E+12;164;weiblich;italian;2140;1.60E+12;[0,90,180,270,360,450,540,563,573,590,607,624,640,657,673,690,707,722,741,757,774,790,807,823,841,856,873,890,907,997,1087,1177,1267,1293,1307,1323,1340,1356,1372,1391,1407,1423,1440,1457,1473,1491,1581,1671,1718,1726,1740,1757,1773,1789,1806,1824,1840,1857,1872,1891,1907,1923,1940,1957,1973,1990,2008,2024,2040,2057,2074,2090,2106,2123,2140];[0,0,0,0,0,0,0,1,3,10,20,31,44,62,77,92,108,116,126,132,135,137,138,139,139,140,141,145,147,147,147,147,147,147,142,129,106,53,-11,-117,-156,-183,-208,-220,-231,-240,-240,-240,-241,-243,-245,-253,-263,-279,-303,-331,-348,-361,-371,-376,-380,-383,-385,-387,-389,-391,-394,-399,-403,-406,-409,-410,-411,-411,-411];[0,0,0,0,0,0,0,0,1,5,11,20,32,54,79,111,155,188,235,268,297,315,336,364,378,396,415,431,438,438,438,438,438,439,444,459,481,525,571,649,675,686,692,692,689,682,682,682,682,682,682,682,682,682,679,676,674,673,672,671,671,670,670,670,670,670,670,674,677,680,683,685,686,687,688];70.56408658;Mammal;Fish;747;725;Dolphin;Mammal;Thu Aug 06 2020 12:34:54 GMT+0200 (Ora legale dell’Europa centrale);1.60E+12;1.60E+12;9.042666667;75;main;3;Atypical
2140;498;NA;2781;26;;Mammal;Incorrect;Graduated College;1.60E+12;164;weiblich;italian;2287;1.60E+12;[0,90,180,270,360,450,498,505,520,537,554,570,587,603,620,636,653,670,687,703,720,737,827,917,1007,1097,1187,1277,1367,1457,1547,1637,1727,1790,1803,1820,1837,1853,1869,1886,1903,1920,1936,1953,1969,1986,1999,2089,2120,2137,2153,2170,2187,2203,2220,2236,2253,2270,2287];[0,0,0,0,0,0,0,2,4,11,19,33,43,48,52,55,55,55,54,52,49,47,47,47,47,47,47,47,47,47,47,47,47,48,67,97,130,153,179,204,238,261,277,297,313,323,329,358,368,371,375,378,380,382,384,385,386,386,386];[0,0,0,0,0,0,1,5,9,20,36,67,104,130,167,192,216,234,248,258,264,270,271,272,273,274,275,276,277,278,279,280,281,276,311,366,425,470,522,569,627,658,679,698,712,720,724,725,725,724,721,718,713,709,704,701,699,698,698];66.2984981;Mammal;Fish;736;725;Seal;Fish;Thu Aug 06 2020 12:34:54 GMT+0200 (Ora legale dell’Europa centrale);1.60E+12;1.60E+12;9.042666667;59;main;4;Atypical
2140;1823;NA;5085;26;;Fish;Incorrect;Graduated College;1.60E+12;164;weiblich;italian;4961;1.60E+12;[0,90,180,270,360,450,540,630,720,810,900,990,1080,1170,1260,1350,1440,1530,1620,1710,1800,1822,1830,1843,1860,1876,1893,1909,1926,1944,1960,1977,1993,2009,2027,2044,2060,2077,2167,2257,2347,2437,2527,2557,2564,2576,2593,2611,2626,2643,2660,2676,2692,2710,2726,2744,2760,2777,2794,2810,2827,2843,2860,2877,2894,2909,2927,2943,2960,2976,2993,3010,3027,3044,3060,3077,3093,3111,3129,3144,3162,3210,3287,3335,3383,3473,3520,3527,3544,3561,3578,3595,3611,3627,3644,3661,3678,3694,3710,3727,3744,3834,3924,3937,3945,3960,3977,3994,4011,4028,4044,4060,4077,4095,4110,4127,4144,4161,4177,4193,4211,4227,4245,4260,4278,4295,4311,4327,4344,4360,4450,4540,4630,4720,4810,4828,4843,4861,4877,4896,4911,4927,4944,4961];[0,0,0,0,0,0,0,0,0,0,0,0,0,0,0,0,0,0,0,0,0,2,6,11,29,49,70,92,111,138,148,157,162,167,169,172,173,173,174,175,176,177,178,177,184,197,231,264,285,306,323,335,351,360,366,373,379,382,385,386,387,388,388,388,388,388,389,389,389,390,390,391,391,391,391,391,391,391,391,391,391,390,390,390,390,390,390,388,381,359,321,245,134,72,24,-6,-23,-32,-38,-40,-40,-44,-48,-48,-64,-80,-170,-240,-282,-324,-348,-372,-387,-398,-405,-410,-414,-416,-418,-420,-425,-427,-428,-429,-430,-430,-430,-430,-430,-430,-430,-430,-430,-430,-430,-430,-430,-430,-430,-430,-430,-430,-430,-430];[0,0,0,0,0,0,0,0,0,0,0,0,0,0,0,0,0,0,0,0,0,3,7,13,31,50,75,105,143,211,248,287,309,331,340,350,361,373,374,375,376,377,378,380,386,400,433,466,487,509,528,546,572,586,594,605,615,621,626,628,630,630,631,631,634,636,641,646,653,660,666,672,676,680,682,684,685,687,687,687,687,687,687,687,687,687,687,687,687,688,688,685,653,620,591,571,558,552,547,543,540,541,542,543,550,556,586,605,614,624,629,632,634,635,636,638,639,641,643,647,655,658,662,664,666,667,667,668,668,669,669,669,669,669,669,669,672,681,686,690,693,694,695,695];86.38526219;Fish;Mammal;753;728;Seahorse;Mammal;Thu Aug 06 2020 12:34:54 GMT+0200 (Ora legale dell’Europa centrale);1.60E+12;1.60E+12;9.042666667;144;main;5;Atypical
2140;2937;NA;5353;26;;Mammal;Correct;Graduated College;1.60E+12;164;weiblich;italian;4910;1.60E+12;[0,90,180,270,360,450,540,630,720,810,900,990,1080,1170,1260,1350,1440,1530,1620,1710,1800,1890,1980,2070,2160,2250,2340,2430,2520,2610,2700,2790,2880,2937,2945,2958,2975,2991,3008,3024,3042,3057,3075,3091,3107,3124,3141,3158,3175,3191,3208,3224,3241,3257,3274,3291,3308,3324,3341,3358,3374,3391,3408,3498,3588,3678,3768,3858,3948,4021,4028,4041,4059,4074,4091,4108,4124,4140,4157,4174,4192,4208,4225,4241,4258,4274,4291,4308,4324,4341,4357,4373,4392,4408,4424,4442,4458,4475,4491,4508,4524,4541,4557,4574,4591,4607,4625,4641,4658,4674,4692,4708,4724,4741,4757,4774,4791,4807,4825,4841,4858,4875,4891,4910];[0,0,0,0,0,0,0,0,0,0,0,0,0,0,0,0,0,0,0,0,0,0,0,0,0,0,0,0,0,0,0,0,0,0,0,0,-2,-3,-6,-8,-10,-11,-11,-11,-11,-10,-8,-7,-4,-2,1,4,6,10,13,14,16,18,19,21,22,24,25,25,25,25,25,25,25,28,37,49,92,137,167,192,214,228,239,244,250,255,259,264,269,274,277,281,284,288,293,299,308,313,318,323,327,331,335,339,343,347,351,353,355,356,357,358,358,359,359,361,362,362,363,363,364,364,365,366,366,366,366,366];[0,0,0,0,0,0,0,0,0,0,0,0,0,0,0,0,0,0,0,0,0,0,0,0,0,0,0,0,0,0,0,0,0,2,5,10,18,29,43,61,83,90,110,124,136,148,157,162,169,174,180,185,189,195,200,205,208,212,216,219,222,227,228,229,230,231,232,233,234,233,244,259,313,369,415,451,489,514,536,549,560,570,579,590,599,607,612,618,624,630,635,641,648,650,652,654,655,656,656,656,657,657,657,658,658,658,658,659,659,659,660,660,661,661,662,662,663,665,666,668,669,670,671,672];66.86797813;Mammal;Fish;750;721;Guineapig;Mammal;Thu Aug 06 2020 12:34:54 GMT+0200 (Ora legale dell’Europa centrale);1.60E+12;1.60E+12;9.042666667;124;main;6;Typical
2140;418;NA;2032;26;;Mammal;Correct;Graduated College;1.60E+12;164;weiblich;italian;1922;1.60E+12;[0,90,180,270,360,418,426,438,455,471,487,504,521,538,555,570,588,605,621,637,654,670,688,778,868,958,1004,1021,1039,1054,1071,1088,1104,1122,1212,1302,1392,1482,1572,1574,1587,1604,1620,1637,1653,1670,1687,1705,1721,1737,1754,1771,1788,1805,1821,1838,1856,1871,1888,1905,1922];[0,0,0,0,0,2,4,9,17,30,50,67,77,89,104,105,112,114,116,118,122,131,136,136,136,136,136,146,160,167,173,176,165,123,30,-63,-156,-249,-342,-344,-351,-358,-364,-367,-369,-369,-370,-371,-374,-377,-381,-384,-388,-391,-395,-398,-401,-403,-405,-406,-406];[0,0,0,0,0,0,0,2,7,16,35,58,79,109,170,181,248,290,323,354,394,433,451,454,457,460,460,526,577,599,631,658,682,725,725,725,725,725,725,725,720,715,711,710,708,708,708,707,706,704,702,700,698,696,694,692,691,690,690,690,690];69.53970787;Mammal;Insect;746;725;Zebra;Mammal;Thu Aug 06 2020 12:34:54 GMT+0200 (Ora legale dell’Europa centrale);1.60E+12;1.60E+12;9.042666667;61;main;7;Typical
2140;354;NA;1971;26;;Fish;Correct;Graduated College;1.60E+12;164;weiblich;italian;1505;1.60E+12;[0,90,180,270,354,371,388,405,421,439,455,471,488,505,521,537,554,572,588,605,621,638,655,672,762,852,942,1032,1122,1212,1285,1292,1305,1322,1338,1355,1371,1388,1404,1421,1438,1455,1472,1488,1505];[0,0,0,0,0,0,0,1,1,2,2,2,2,2,-1,-3,-4,-6,-7,-7,-7,-7,-6,-4,-4,-4,-4,-4,-4,-4,-4,-4,-3,3,26,57,101,149,200,259,300,328,358,373,376];[0,0,0,0,1,1,3,4,6,11,24,43,85,118,165,205,226,255,270,282,295,307,323,329,329,329,329,329,329,329,331,335,338,348,384,427,480,530,576,621,645,658,671,676,677];72.60127368;Fish;Insect;752;727;Clownfish;Fish;Thu Aug 06 2020 12:34:54 GMT+0200 (Ora legale dell’Europa centrale);1.60E+12;1.60E+12;9.042666667;45;main;8;Typical
2140;1239;NA;5215;26;;Amphibian;Correct;Graduated College;1.60E+12;164;weiblich;italian;4912;1.60E+12;[0,90,180,270,360,450,540,630,720,810,900,990,1080,1170,1239,1247,1262,1278,1295,1311,1327,1345,1361,1378,1395,1412,1429,1445,1461,1478,1495,1585,1675,1765,1855,1945,2035,2125,2215,2305,2395,2485,2575,2665,2684,2695,2711,2728,2745,2761,2778,2795,2811,2828,2846,2861,2878,2968,3058,3148,3238,3328,3418,3508,3598,3688,3778,3868,3958,4048,4138,4228,4318,4408,4457,4465,4479,4495,4512,4528,4545,4561,4579,4595,4611,4628,4646,4662,4679,4695,4712,4728,4745,4761,4778,4796,4812,4828,4845,4862,4879,4896,4912];[0,0,0,0,0,0,0,0,0,0,0,0,0,0,0,0,0,0,-1,-11,-25,-45,-64,-75,-84,-90,-95,-98,-100,-102,-102,-102,-102,-102,-102,-102,-102,-102,-102,-102,-102,-102,-102,-102,-102,-102,-105,-111,-118,-134,-149,-165,-183,-205,-218,-228,-233,-233,-233,-233,-233,-233,-233,-233,-233,-233,-233,-233,-233,-233,-233,-233,-233,-233,-232,-227,-220,-192,-136,-57,32,101,187,234,256,283,298,305,314,319,323,327,331,335,338,341,343,344,347,349,350,351,352];[0,0,0,0,0,0,0,0,0,0,0,0,0,0,3,8,16,36,74,136,183,235,280,304,318,325,331,334,335,338,339,339,339,339,339,339,339,339,339,339,339,339,339,339,339,344,357,370,383,409,430,446,461,476,485,490,493,493,493,493,493,493,493,493,493,493,493,493,493,493,493,493,493,493,493,494,497,507,526,547,566,576,586,589,589,591,593,595,598,602,607,613,620,628,636,648,655,663,669,676,680,684,685];87.09052075;Amphibian;Fish;750;726;Seaturtle;Amphibian;Thu Aug 06 2020 12:34:54 GMT+0200 (Ora legale dell’Europa centrale);1.60E+12;1.60E+12;9.042666667;103;main;9;Atypical
2140;563;NA;2452;26;;Mammal;Correct;Graduated College;1.60E+12;164;weiblich;italian;1743;1.60E+12;[0,90,180,270,360,450,540,563,577,593,610,626,644,659,677,694,710,727,743,833,923,1013,1032,1043,1061,1076,1093,1110,1126,1143,1159,1176,1193,1210,1226,1242,1259,1277,1293,1310,1327,1343,1360,1377,1393,1411,1426,1443,1460,1477,1493,1510,1527,1543,1560,1576,1595,1609,1627,1644,1659,1678,1694,1710,1726,1743];[0,0,0,0,0,0,0,0,0,0,0,0,0,0,4,8,14,21,24,25,26,27,26,31,51,99,154,199,258,306,331,349,373,381,386,388,390,390,390,390,390,390,390,390,390,389,388,387,386,384,383,381,379,378,377,375,375,374,374,374,374,373,373,373,372,372];[0,0,0,0,0,0,0,3,14,59,118,148,211,253,284,310,334,356,366,366,366,366,367,369,379,404,432,454,480,500,511,520,536,545,552,556,563,569,576,581,590,597,606,616,634,643,649,656,660,665,670,675,678,682,684,685,687,687,688,688,689,689,690,691,692,693];59.05578105;Mammal;Reptile;738;735;Elephant;Mammal;Thu Aug 06 2020 12:34:54 GMT+0200 (Ora legale dell’Europa centrale);1.60E+12;1.60E+12;9.042666667;66;main;10;Typical
2140;481;NA;2077;26;;Mammal;Correct;Graduated College;1.60E+12;164;weiblich;italian;1962;1.60E+12;[0,90,180,270,360,450,480,495,513,529,546,563,579,596,612,629,646,662,679,695,711,730,745,835,925,1015,1105,1113,1128,1145,1162,1180,1196,1212,1229,1247,1337,1427,1517,1563,1578,1596,1613,1629,1645,1663,1680,1696,1713,1729,1746,1762,1779,1795,1812,1830,1847,1862,1879,1946,1962];[0,0,0,0,0,0,0,2,8,14,21,26,32,37,44,49,52,54,56,58,59,62,65,68,71,74,77,101,130,223,262,291,320,339,354,364,364,364,364,364,366,379,388,395,398,401,402,403,403,404,404,405,405,405,405,405,405,405,405,405,405];[0,0,0,0,0,0,1,12,26,44,63,84,110,140,173,203,220,230,239,248,255,265,277,282,287,292,296,326,361,448,479,502,524,537,549,556,557,558,559,559,561,582,599,611,619,625,631,637,643,648,652,656,658,662,665,668,670,671,671,671,671];58.12262228;Mammal;Fish;743;716;Cangaroo;Mammal;Thu Aug 06 2020 12:34:54 GMT+0200 (Ora legale dell’Europa centrale);1.60E+12;1.60E+12;9.042666667;61;main;11;Typical
2140;338;NA;1838;26;;Insect;Correct;Graduated College;1.60E+12;164;weiblich;italian;1522;1.60E+12;[0,90,180,270,338,355,372,390,405,423,438,455,472,488,505,521,539,556,572,589,606,696,786,876,966,1056,1140,1155,1171,1187,1205,1222,1239,1255,1271,1288,1306,1322,1339,1356,1374,1389,1405,1421,1439,1455,1472,1489,1506,1522];[0,0,0,0,0,0,1,3,7,13,18,23,28,33,39,45,49,52,54,55,57,58,59,60,61,62,62,76,135,180,271,304,327,348,357,367,374,379,382,383,384,384,384,384,384,384,383,383,382,382];[0,0,0,0,1,2,3,9,21,36,55,75,95,120,148,174,192,209,219,232,237,239,241,243,245,247,249,274,366,423,525,561,589,615,626,639,650,659,665,669,671,672,673,674,674,675,675,675,675,675];60.67157522;Insect;Mammal;743;718;Fly;Insect;Thu Aug 06 2020 12:34:54 GMT+0200 (Ora legale dell’Europa centrale);1.60E+12;1.60E+12;9.042666667;50;main;12;Typical
2140;526;NA;2091;26;;Mammal;Correct;Graduated College;1.60E+12;164;weiblich;italian;1928;1.60E+12;[0,90,180,270,360,450,526,534,545,563,579,595,612,629,646,661,678,695,712,730,820,910,1000,1040,1047,1062,1078,1095,1112,1129,1145,1235,1325,1415,1505,1595,1685,1749,1762,1779,1795,1812,1828,1845,1862,1879,1895,1913,1928];[0,0,0,0,0,0,0,0,0,0,1,3,5,8,11,14,17,22,27,34,34,34,34,34,34,34,30,14,-23,-60,-79,-126,-173,-220,-267,-314,-361,-394,-399,-401,-406,-408,-410,-412,-413,-415,-415,-416,-416];[0,1,2,3,4,5,5,28,50,105,168,232,274,303,329,343,352,363,371,382,383,384,385,387,393,400,428,492,588,668,707,709,711,713,715,717,719,721,716,712,707,704,699,696,693,691,689,689,688];65.17811626;Mammal;Reptile;755;722;Cow;Mammal;Thu Aug 06 2020 12:34:54 GMT+0200 (Ora legale dell’Europa centrale);1.60E+12;1.60E+12;9.042666667;49;main;13;Typical
2140;715;NA;2771;26;;Bird;Correct;Graduated College;1.60E+12;164;weiblich;italian;2592;1.60E+12;[0,90,180,270,360,450,540,630,715,727,743,760,776,793,810,826,843,860,875,893,909,926,943,960,976,1066,1156,1246,1336,1426,1516,1582,1593,1609,1626,1643,1660,1676,1692,1710,1800,1890,1927,1942,1959,1977,1993,2010,2026,2043,2060,2077,2093,2109,2126,2143,2233,2323,2413,2465,2475,2493,2509,2526,2543,2559,2577,2592];[0,0,0,0,0,0,0,0,0,0,-6,-9,-12,-13,-13,-13,-13,-13,-12,-10,-10,-9,-9,-9,-6,-6,-6,-6,-6,-6,-6,-9,-16,-37,-105,-191,-260,-310,-342,-360,-361,-362,-362,-366,-378,-384,-390,-396,-400,-403,-405,-407,-408,-409,-410,-410,-410,-410,-410,-410,-410,-411,-412,-412,-413,-413,-414,-414];[0,1,2,3,4,5,6,7,7,29,82,122,167,193,218,236,253,273,279,287,290,292,292,293,297,297,297,297,297,297,297,299,306,326,382,453,509,548,569,581,582,583,583,588,606,615,625,634,641,647,650,654,657,658,659,661,662,663,664,663,666,670,673,674,676,676,677,677];60.46804722;Bird;Insect;750;724;Eagle;Bird;Thu Aug 06 2020 12:34:54 GMT+0200 (Ora legale dell’Europa centrale);1.60E+12;1.60E+12;9.042666667;68;main;14;Typical
2140;520;NA;2401;26;;Insect;Correct;Graduated College;1.60E+12;164;weiblich;italian;2296;1.60E+12;[0,90,180,270,360,450,520,529,546,562,581,597,613,630,646,663,753,843,933,1023,1113,1203,1293,1374,1382,1396,1413,1429,1445,1462,1479,1496,1513,1529,1546,1563,1579,1597,1613,1629,1646,1662,1679,1696,1786,1876,1928,1936,1946,1963,1980,1997,2013,2030,2046,2064,2079,2096,2113,2129,2148,2163,2181,2197,2213,2229,2296];[0,0,0,0,0,0,2,8,22,31,37,43,48,52,54,57,57,57,57,57,57,57,57,60,85,113,148,171,185,199,203,207,209,211,211,205,190,156,110,66,3,-56,-126,-133,-134,-135,-135,-145,-155,-183,-234,-282,-324,-366,-397,-413,-429,-437,-447,-452,-456,-460,-463,-464,-465,-466,-466];[0,3,6,9,12,15,15,40,99,161,206,262,303,333,348,362,362,362,362,362,362,362,362,362,378,397,420,437,449,464,473,486,499,511,526,541,558,588,617,638,654,655,629,622,622,622,622,622,625,633,648,659,666,673,678,682,686,688,690,691,691,691,691,691,691,691,691];75.28226742;Insect;Bird;746;719;Ant;Insect;Thu Aug 06 2020 12:34:54 GMT+0200 (Ora legale dell’Europa centrale);1.60E+12;1.60E+12;9.042666667;67;main;15;Typical
2140;314;NA;3865;26;;Amphibian;Correct;Graduated College;1.60E+12;164;weiblich;italian;2709;1.60E+12;[0,90,180,270,314,325,342,359,375,392,409,425,482,530,546,559,576,592,609,625,642,658,675,692,708,725,742,759,776,792,809,899,989,1079,1152,1160,1176,1192,1209,1226,1242,1259,1275,1292,1309,1326,1342,1432,1522,1612,1702,1792,1882,1972,2062,2132,2142,2159,2175,2192,2208,2226,2242,2258,2275,2291,2308,2325,2343,2359,2376,2392,2409,2425,2442,2458,2475,2492,2508,2524,2543,2559,2576,2592,2609,2626,2643,2659,2675,2692,2709];[0,0,0,0,0,0,1,1,2,2,2,2,3,3,3,4,4,6,9,12,17,20,24,27,30,34,38,43,50,61,67,67,67,67,66,60,52,14,-74,-148,-197,-232,-260,-283,-297,-301,-304,-304,-304,-304,-304,-304,-304,-304,-304,-303,-299,-276,-211,-124,-13,55,125,143,173,201,228,248,262,277,285,289,294,298,302,306,311,315,319,322,325,327,328,330,331,332,333,335,338,340,342];[0,0,0,0,0,0,-1,-1,-2,-2,-2,-2,-2,-2,-2,-2,-2,-2,0,4,12,24,52,94,140,195,233,275,311,355,372,374,376,378,380,392,403,451,519,561,585,599,607,613,617,619,620,620,620,620,620,620,620,620,620,620,620,620,622,625,626,626,618,614,609,605,607,614,620,626,631,634,639,643,647,652,657,663,666,670,673,673,674,675,675,676,676,676,676,676,676];85.08368205;Amphibian;Reptile;739;724;Frog;Amphibian;Thu Aug 06 2020 12:34:54 GMT+0200 (Ora legale dell’Europa centrale);1.60E+12;1.60E+12;9.042666667;91;main;16;Atypical
2140;723;NA;1925;26;;Insect;Correct;Graduated College;1.60E+12;164;weiblich;italian;1564;1.60E+12;[0,90,180,270,360,450,540,630,720,723,730,746,764,781,797,814,830,847,864,954,1044,1092,1100,1113,1130,1147,1163,1179,1196,1214,1231,1247,1263,1280,1297,1313,1330,1347,1363,1380,1396,1413,1431,1446,1464,1481,1497,1514,1530,1547,1564];[0,0,0,0,0,0,0,0,0,-2,-12,-34,-84,-106,-125,-143,-151,-158,-160,-161,-162,-162,-168,-172,-177,-185,-179,-139,9,102,190,259,303,326,343,352,355,359,364,371,376,384,390,395,398,401,403,404,404,404,402];[0,1,2,3,4,5,6,7,8,6,28,70,170,216,251,283,296,309,315,318,321,322,333,342,356,398,420,462,543,574,595,608,613,614,614,614,615,616,618,621,625,632,637,643,647,652,658,662,666,668,670];60.99630737;Insect;Fish;746;726;Mosquito;Insect;Thu Aug 06 2020 12:34:54 GMT+0200 (Ora legale dell’Europa centrale);1.60E+12;1.60E+12;9.042666667;51;main;17;Typical
2140;547;NA;3126;26;;Reptile;Correct;Graduated College;1.60E+12;164;weiblich;italian;2691;1.60E+12;[0,90,180,270,360,450,540,547,557,574,590,606,624,641,657,673,690,707,797,887,977,1067,1157,1247,1337,1427,1517,1607,1650,1658,1673,1690,1706,1724,1741,1757,1774,1790,1808,1824,1841,1857,1873,1890,1907,1997,2087,2124,2141,2156,2173,2190,2207,2224,2240,2257,2274,2290,2307,2323,2340,2357,2374,2390,2407,2423,2440,2458,2474,2491,2507,2524,2540,2557,2573,2590,2608,2623,2641,2657,2674,2691];[0,-1,-2,-3,-4,-5,-6,-4,-21,-54,-78,-94,-110,-117,-122,-125,-126,-127,-127,-127,-127,-127,-127,-127,-127,-127,-127,-127,-126,-124,-121,-106,-62,-20,10,49,83,129,168,206,243,266,285,301,307,307,307,307,307,308,311,316,320,324,328,332,335,337,339,341,343,347,349,352,354,356,358,360,363,365,367,368,369,371,373,374,376,377,378,378,379,380];[0,2,4,6,8,10,12,14,52,145,207,252,291,308,323,329,334,335,335,335,335,335,335,335,335,335,335,335,335,336,338,348,370,387,395,404,407,410,414,420,428,435,441,448,451,452,453,454,478,507,525,545,558,569,580,589,597,601,605,610,613,621,625,628,631,633,636,638,641,643,646,648,649,651,654,656,658,659,661,661,663,665];63.27167939;Reptile;Bird;746;721;Snake;Reptile;Thu Aug 06 2020 12:34:54 GMT+0200 (Ora legale dell’Europa centrale);1.60E+12;1.60E+12;9.042666667;82;main;18;Typical
2140;418;NA;7607;26;;Bird;Correct;Graduated College;1.60E+12;164;weiblich;italian;7272;1.60E+12;[0,90,180,270,360,418,425,439,455,471,488,505,521,538,555,572,588,606,622,712,802,892,982,1072,1162,1252,1342,1432,1522,1612,1702,1792,1882,1972,2062,2152,2242,2332,2422,2512,2602,2692,2782,2872,2962,3052,3142,3232,3322,3412,3502,3592,3682,3772,3862,3952,4042,4132,4140,4155,4171,4189,4205,4221,4238,4256,4272,4362,4452,4542,4632,4722,4812,4902,4992,5082,5172,5262,5352,5442,5532,5622,5712,5802,5892,5982,6072,6162,6252,6342,6371,6388,6405,6421,6439,6456,6472,6562,6652,6660,6671,6689,6705,6722,6738,6755,6771,6788,6805,6822,6840,6857,6873,6956,6972,6989,7006,7022,7039,7057,7073,7089,7106,7123,7140,7156,7172,7189,7205,7223,7272];[0,0,0,0,0,0,1,3,10,19,28,36,46,60,71,79,88,95,101,101,101,101,101,101,101,101,101,101,101,101,101,101,101,101,101,101,101,101,101,101,101,101,101,101,101,101,101,101,101,101,101,101,101,101,101,101,101,99,92,85,66,-12,-52,-70,-98,-116,-118,-122,-126,-130,-134,-138,-142,-146,-150,-154,-158,-162,-166,-170,-174,-178,-182,-186,-190,-194,-198,-202,-206,-210,-217,-262,-293,-314,-326,-346,-355,-355,-355,-356,-360,-369,-378,-388,-397,-404,-408,-413,-415,-416,-417,-417,-417,-417,-417,-418,-418,-418,-418,-419,-419,-420,-420,-420,-420,-420,-420,-420,-420,-420,-420];[0,0,0,0,0,0,3,6,16,32,51,74,114,180,230,264,303,333,356,356,356,356,356,356,356,356,356,356,356,356,356,356,356,356,356,356,356,356,356,356,356,356,356,356,356,356,356,356,356,356,356,356,356,356,356,356,356,358,364,373,391,449,471,479,489,492,492,494,496,498,500,502,504,506,508,510,512,514,516,518,520,522,524,526,528,530,532,534,536,538,540,564,579,588,592,600,602,602,602,603,607,619,635,655,671,687,695,706,708,710,710,710,710,710,710,709,708,707,706,703,701,698,695,693,692,691,690,689,689,688,688];72.3233353;Bird;Fish;743;725;Dove;Bird;Thu Aug 06 2020 12:34:54 GMT+0200 (Ora legale dell’Europa centrale);1.60E+12;1.60E+12;9.042666667;131;main;19;Typical
2140;474;NA;1810;26;;Capital;Correct;Graduated College;1.60E+12;164;weiblich;italian;1477;1.60E+12;[0,90,180,270,360,450,474,482,493,510,526,542,559,576,593,609,626,642,660,676,693,709,726,743,760,776,866,956,1024,1031,1042,1059,1076,1093,1110,1126,1143,1160,1176,1192,1209,1226,1243,1259,1276,1292,1310,1326,1343,1359,1376,1393,1410,1427,1443,1459,1477];[0,1,2,3,4,5,3,10,16,30,39,50,55,56,55,45,21,-15,-142,-164,-177,-200,-213,-222,-229,-236,-236,-236,-237,-240,-246,-266,-291,-308,-330,-348,-358,-368,-375,-382,-384,-386,-388,-389,-391,-393,-396,-398,-401,-403,-405,-407,-410,-411,-412,-414,-414];[0,0,0,0,0,0,2,6,11,21,29,44,62,85,121,152,195,241,401,429,445,468,477,480,480,480,480,480,480,485,490,509,532,548,568,583,592,601,607,614,617,620,622,625,629,633,640,647,653,659,662,666,673,675,679,683,685];59.04653375;Non-Capital;Capital;749;723;Paris;Capital;Thu Aug 06 2020 12:34:54 GMT+0200 (Ora legale dell’Europa centrale);1.60E+12;1.60E+12;9.042666667;57;exploration;1;Typical
2140;345;NA;6025;26;;Non-Capital;Correct;Graduated College;1.60E+12;164;weiblich;italian;5413;1.60E+12;[0,90,180,270,345,363,379,396,413,429,446,462,479,496,512,528,547,562,580,596,612,629,646,663,679,696,712,729,746,762,779,796,886,976,1066,1156,1246,1336,1426,1516,1606,1696,1786,1876,1966,2056,2146,2236,2326,2416,2506,2596,2686,2776,2866,2956,3046,3136,3226,3316,3406,3496,3534,3546,3562,3579,3595,3613,3629,3645,3662,3679,3696,3712,3729,3746,3763,3779,3796,3812,3829,3846,3863,3880,3896,3912,4002,4092,4182,4272,4362,4452,4497,4512,4528,4546,4562,4579,4597,4613,4629,4646,4663,4679,4695,4712,4728,4746,4763,4779,4796,4812,4830,4845,4863,4879,4896,4912,4929,4945,4962,4980,4996,5013,5029,5046,5062,5079,5096,5112,5129,5146,5162,5179,5196,5212,5230,5246,5262,5280,5296,5313,5329,5346,5364,5380,5397,5413];[0,0,0,0,1,4,10,16,21,25,27,29,31,34,39,46,54,58,64,67,72,74,77,78,79,79,79,79,79,79,79,79,79,79,79,79,79,79,79,79,79,79,79,79,79,79,79,79,79,79,79,79,79,79,79,79,79,79,79,79,79,79,81,85,99,115,139,158,180,196,222,232,243,254,263,272,282,293,301,310,319,327,343,353,363,370,370,370,370,370,370,370,371,374,381,390,397,402,406,411,416,420,423,427,430,432,435,437,439,440,441,443,444,445,446,447,448,449,450,450,450,451,451,452,452,453,453,453,454,454,454,455,455,456,457,458,459,460,461,462,463,464,464,466,467,468,469,470];[0,0,0,0,0,0,-1,-1,-2,-2,-2,-2,-1,3,10,21,41,60,94,118,153,175,199,211,224,234,239,243,246,247,248,250,250,250,250,250,250,250,250,250,250,250,250,250,250,250,250,250,250,250,250,250,250,250,250,250,250,250,250,250,250,250,254,261,280,299,326,346,367,383,409,420,430,443,453,464,475,488,495,503,511,517,531,541,552,560,560,560,560,560,560,560,562,564,570,575,579,581,584,586,589,591,593,596,598,600,602,605,608,610,611,614,616,619,622,624,627,629,631,633,634,636,637,640,642,643,645,647,648,650,652,653,655,657,659,660,662,665,666,668,670,671,673,674,676,678,679,681];58.26112831;Non-Capital;Capital;744;724;Dubrovnik;Non-Capital;Thu Aug 06 2020 12:34:54 GMT+0200 (Ora legale dell’Europa centrale);1.60E+12;1.60E+12;9.042666667;148;exploration;2;Atypical
2140;575;NA;2668;26;;Non-Capital;Correct;Graduated College;1.60E+12;164;weiblich;italian;1878;1.60E+12;[0,90,180,270,360,450,540,575,582,594,610,627,644,661,677,693,710,727,744,760,777,795,885,975,1065,1155,1245,1273,1280,1294,1311,1327,1344,1360,1378,1394,1412,1427,1444,1461,1477,1494,1511,1528,1544,1561,1577,1594,1610,1628,1644,1661,1677,1695,1710,1727,1744,1762,1777,1793,1810,1828,1844,1861,1878];[0,0,0,0,0,0,0,0,-2,-8,-14,-21,-27,-32,-37,-39,-40,-41,-42,-42,-42,-42,-43,-44,-45,-46,-47,-46,-63,-79,-99,-118,-127,-137,-141,-122,-83,-22,44,94,168,228,266,302,325,336,343,350,353,355,358,360,362,366,370,375,378,380,382,383,384,384,384,384,385];[0,1,2,3,4,5,6,4,18,41,67,98,123,147,170,184,194,205,208,210,215,218,219,220,221,222,223,224,242,258,281,307,324,344,382,421,462,505,540,560,589,610,624,639,651,657,662,668,672,674,676,677,679,679,679,679,679,677,675,674,673,673,672,672,672];69.42299375;Non-Capital;Capital;753;711;Salzburg;Non-Capital;Thu Aug 06 2020 12:34:54 GMT+0200 (Ora legale dell’Europa centrale);1.60E+12;1.60E+12;9.042666667;65;exploration;3;Typical
2140;314;NA;5361;26;;Non-Capital;Incorrect;Graduated College;1.60E+12;164;weiblich;italian;5151;1.60E+12;[0,90,180,270,314,321,333,350,368,383,401,416,433,450,467,483,501,517,534,550,567,583,600,616,633,650,666,684,774,864,954,1044,1134,1224,1314,1404,1494,1584,1674,1764,1806,1817,1833,1850,1867,1884,1900,1917,1933,1950,1966,1984,1999,2016,2034,2051,2141,2231,2321,2411,2501,2591,2681,2771,2861,2951,3041,3131,3221,3311,3401,3491,3581,3671,3761,3851,3941,4031,4121,4182,4200,4216,4234,4251,4267,4284,4300,4317,4333,4350,4367,4383,4400,4490,4580,4670,4760,4848,4856,4867,4884,4900,4917,4934,4950,4967,4983,5000,5017,5034,5051,5067,5083,5100,5118,5135,5151];[0,0,0,0,0,1,2,9,20,33,48,60,70,82,87,92,93,94,94,91,87,81,76,73,71,68,67,65,65,65,65,65,65,65,65,65,65,65,65,65,64,61,54,42,13,-15,-47,-77,-98,-122,-134,-147,-152,-155,-157,-158,-158,-158,-158,-158,-158,-158,-158,-158,-158,-158,-158,-158,-158,-158,-158,-158,-158,-158,-158,-158,-158,-158,-158,-159,-170,-192,-217,-247,-278,-304,-320,-338,-346,-354,-359,-361,-361,-361,-361,-361,-361,-362,-364,-365,-369,-375,-387,-395,-403,-408,-414,-418,-422,-424,-425,-426,-427,-428,-428,-428,-429];[0,0,0,0,1,1,2,8,20,33,47,61,75,101,120,143,169,194,215,228,243,258,272,283,290,295,299,300,300,300,300,300,300,300,300,300,300,300,300,300,301,303,307,314,330,347,366,385,398,414,422,431,434,436,437,439,439,439,439,439,439,439,439,439,439,439,439,439,439,439,439,439,439,439,439,439,439,439,439,442,456,479,504,532,560,585,601,621,630,640,646,647,648,648,648,648,648,648,648,648,650,652,658,663,668,671,674,676,678,679,681,681,682,682,682,682,683];68.05997453;Non-Capital;Capital;745;734;Rio de Janeiro;Capital;Thu Aug 06 2020 12:34:54 GMT+0200 (Ora legale dell’Europa centrale);1.60E+12;1.60E+12;9.042666667;117;exploration;4;Atypical
2140;523;NA;1887;26;;Capital;Correct;Graduated College;1.60E+12;164;weiblich;italian;1506;1.60E+12;[0,90,180,270,360,450,523,538,555,573,588,605,622,638,656,672,687,705,722,738,756,846,936,964,972,988,1006,1022,1039,1055,1072,1088,1105,1122,1138,1155,1172,1188,1204,1222,1238,1256,1272,1289,1305,1322,1339,1355,1372,1388,1405,1422,1439,1456,1471,1490,1506];[0,0,0,0,0,0,0,0,0,2,3,7,11,14,18,21,25,29,33,38,44,44,44,43,40,34,19,-2,-26,-41,-49,-54,-54,-42,-4,51,98,135,191,218,239,260,273,286,295,303,311,318,325,333,339,351,359,364,369,372,374];[0,0,0,0,0,0,1,7,32,64,100,134,166,194,223,243,271,290,308,325,341,342,343,344,349,360,380,411,448,475,494,514,534,551,573,591,601,607,614,616,618,622,626,629,633,635,639,641,644,647,650,656,660,662,663,663,663];70.92593513;Non-Capital;Capital;751;706;London;Capital;Thu Aug 06 2020 12:34:54 GMT+0200 (Ora legale dell’Europa centrale);1.60E+12;1.60E+12;9.042666667;57;exploration;5;Typical
2140;570;NA;7228;26;;Non-Capital;Correct;Graduated College;1.60E+12;164;weiblich;italian;6997;1.60E+12;[0,90,180,270,360,450,540,570,578,595,611,628,645,661,678,694,711,728,745,761,778,794,811,828,918,1008,1098,1188,1278,1368,1458,1548,1638,1728,1818,1908,1998,2088,2178,2268,2358,2416,2429,2445,2461,2478,2495,2511,2528,2545,2562,2578,2595,2611,2628,2644,2662,2678,2695,2711,2728,2744,2761,2779,2795,2811,2828,2845,2861,2879,2905,2995,3085,3175,3265,3355,3445,3535,3625,3715,3805,3895,3985,4075,4114,4128,4144,4161,4178,4195,4211,4228,4245,4261,4278,4295,4311,4328,4345,4361,4378,4394,4410,4428,4445,4461,4478,4568,4635,4643,4661,4678,4694,4711,4728,4745,4761,4778,4795,4811,4827,4845,4862,4878,4895,4912,4928,4945,4962,4978,4995,5011,5028,5044,5061,5078,5095,5185,5275,5365,5455,5545,5635,5725,5735,5745,5762,5779,5795,5812,5828,5845,5861,5878,5894,5911,5928,6018,6108,6198,6288,6321,6329,6344,6361,6378,6395,6412,6428,6444,6461,6478,6495,6511,6528,6618,6708,6787,6794,6812,6828,6845,6862,6879,6896,6911,6928,6946,6964,6979,6997];[0,0,0,0,0,0,0,0,0,-2,-3,-3,-3,4,13,22,35,45,61,75,86,96,112,117,117,117,117,117,117,117,117,117,117,117,117,117,117,117,117,117,117,117,114,110,101,94,87,82,79,74,73,71,70,69,68,67,67,66,66,65,65,65,65,67,70,71,72,73,73,73,73,73,73,73,73,73,73,73,73,73,73,73,73,73,73,71,68,63,48,37,24,11,3,-4,-10,-15,-17,-20,-22,-23,-24,-24,-25,-25,-25,-25,-25,-25,-25,-24,-23,-22,-21,-20,-20,-19,-18,-18,-17,-16,-14,-9,-4,4,13,22,33,43,54,65,76,86,96,105,118,124,126,126,126,126,126,126,126,126,125,119,104,87,69,49,33,22,11,4,0,-2,-2,-2,-2,-2,-2,-2,-5,-7,-26,-57,-128,-182,-251,-291,-328,-347,-357,-368,-371,-371,-371,-372,-373,-378,-384,-390,-397,-402,-407,-412,-414,-416,-417,-418,-418];[0,1,2,3,4,5,6,4,10,26,51,104,139,178,207,226,250,264,283,299,308,317,331,335,335,335,335,335,335,335,335,335,335,335,335,335,335,335,335,335,335,335,334,329,319,310,301,293,290,280,274,269,264,261,258,255,253,249,245,239,231,220,200,187,175,169,164,162,161,160,160,160,160,160,160,160,160,160,160,160,160,160,160,160,160,160,160,159,153,145,133,121,112,102,94,87,81,75,67,62,57,52,49,48,48,48,47,47,47,48,48,48,48,49,49,49,49,50,50,50,51,53,55,57,60,63,64,66,66,66,66,66,66,66,67,70,71,72,73,74,75,76,77,78,75,85,107,135,166,197,228,251,280,308,326,348,374,374,374,374,374,374,375,377,394,424,491,538,597,630,662,680,691,703,708,708,708,708,708,705,702,697,694,691,689,687,686,685,685,685,685];87.03872778;Non-Capital;Capital;746;728;Las Vegas;Non-Capital;Thu Aug 06 2020 12:34:54 GMT+0200 (Ora legale dell’Europa centrale);1.60E+12;1.60E+12;9.042666667;191;exploration;6;Typical
2140;555;NA;1726;26;;Capital;Correct;Graduated College;1.60E+12;164;weiblich;italian;1423;1.60E+12;[0,90,180,270,360,450,540,555,572,589,606,621,639,656,672,689,705,722,738,754,772,789,805,822,838,855,945,1035,1085,1092,1106,1122,1138,1155,1172,1188,1205,1222,1238,1256,1272,1289,1306,1322,1339,1355,1372,1388,1405,1423];[0,0,0,0,0,0,0,0,3,10,24,41,52,68,82,94,115,136,158,171,200,217,229,244,257,269,269,269,269,274,281,300,321,358,370,381,391,394,396,397,399,400,401,401,401,402,403,404,406,407];[0,0,0,0,0,0,0,0,0,0,0,2,6,16,33,61,123,193,278,337,442,492,522,553,573,588,588,588,588,589,592,601,612,632,640,647,653,655,656,658,659,660,660,661,661,662,665,669,673,678];59.85830916;Non-Capital;Capital;747;725;Berlin;Capital;Thu Aug 06 2020 12:34:54 GMT+0200 (Ora legale dell’Europa centrale);1.60E+12;1.60E+12;9.042666667;50;exploration;7;Typical
2140;570;NA;2660;26;;Non-Capital;Correct;Graduated College;1.60E+12;164;weiblich;italian;2251;1.60E+12;[0,90,180,270,360,450,540,570,583,600,616,633,649,667,683,700,718,734,750,840,930,1020,1110,1200,1290,1380,1470,1560,1650,1709,1717,1733,1750,1767,1783,1800,1817,1834,1851,1867,1884,1901,1916,1933,1949,1968,1983,2001,2017,2034,2050,2066,2083,2100,2118,2134,2152,2167,2184,2201,2217,2234,2251];[0,0,0,0,0,0,0,-1,-9,-22,-36,-48,-61,-67,-73,-76,-78,-80,-81,-81,-81,-81,-81,-81,-81,-81,-81,-81,-81,-78,-65,-25,56,105,163,196,231,259,273,289,301,308,313,316,319,324,329,333,338,341,343,344,345,347,348,350,351,353,354,355,356,357,358];[0,1,2,3,4,5,6,5,19,41,68,91,120,138,157,171,182,194,202,203,204,205,206,207,208,209,210,211,212,210,228,282,384,443,511,547,588,620,637,656,670,678,683,686,689,691,693,695,696,696,696,696,696,696,695,693,692,691,691,691,690,690,690];66.36174473;Non-Capital;Capital;744;737;Saigon;Non-Capital;Thu Aug 06 2020 12:34:54 GMT+0200 (Ora legale dell’Europa centrale);1.60E+12;1.60E+12;9.042666667;63;exploration;8;Atypical
2140;378;NA;7775;26;;Non-Capital;Correct;Graduated College;1.60E+12;164;weiblich;italian;7659;1.60E+12;[0,90,180,270,360,378,391,408,424,441,457,474,491,508,525,541,557,574,591,608,625,641,657,674,691,781,871,961,1051,1141,1231,1321,1411,1501,1591,1681,1731,1741,1758,1774,1792,1808,1825,1841,1858,1874,1890,1907,1924,1942,1958,1975,1992,2009,2041,2058,2075,2093,2107,2124,2142,2158,2248,2338,2428,2518,2608,2698,2788,2878,2968,3058,3148,3238,3328,3418,3508,3598,3688,3778,3868,3958,4048,4138,4228,4318,4408,4498,4588,4678,4768,4858,4948,5038,5128,5218,5308,5398,5488,5578,5668,5758,5848,5938,6028,6118,6208,6298,6388,6451,6458,6474,6490,6508,6525,6541,6558,6574,6591,6607,6625,6641,6658,6748,6838,6928,6956,6964,6975,6992,7008,7025,7041,7058,7075,7092,7108,7125,7142,7159,7249,7339,7406,7414,7425,7442,7459,7475,7492,7508,7525,7541,7558,7575,7591,7610,7625,7643,7659];[0,0,0,0,0,1,1,3,6,8,13,19,28,35,44,50,55,59,62,63,65,67,70,73,74,74,74,74,74,74,74,74,74,74,74,74,76,86,122,168,204,241,261,284,302,316,328,340,347,351,354,355,356,356,356,356,357,359,361,364,365,366,366,366,366,366,366,366,366,366,366,366,366,366,366,366,366,366,366,366,366,366,366,366,366,366,366,366,366,366,366,366,366,366,366,366,366,366,366,366,366,366,366,366,366,366,366,366,366,366,363,360,352,309,272,224,174,131,106,82,70,60,56,55,54,53,54,46,38,16,-21,-76,-134,-188,-220,-247,-270,-285,-291,-293,-293,-293,-293,-298,-305,-319,-333,-346,-366,-382,-394,-403,-411,-415,-418,-419,-421,-421,-421];[0,0,0,0,0,0,0,0,-1,-2,-3,-3,-3,0,9,21,38,62,106,154,215,281,306,341,353,354,355,356,357,358,359,360,361,362,363,364,367,392,453,510,542,572,585,601,614,625,637,649,658,664,668,670,671,671,671,672,672,673,674,676,676,676,676,676,676,676,676,676,676,676,676,676,676,676,676,676,676,676,676,676,676,676,676,676,676,676,676,676,676,676,676,676,676,676,676,676,676,676,676,676,676,676,676,676,676,676,676,676,676,676,678,680,683,697,702,705,705,703,695,686,680,674,671,671,671,671,671,672,674,679,684,690,692,692,692,690,686,683,682,682,682,682,682,682,682,682,684,686,689,690,691,691,691,691,691,691,691,691,691];76.86865661;Non-Capital;Capital;744;720;Sydney;Non-Capital;Thu Aug 06 2020 12:34:54 GMT+0200 (Ora legale dell’Europa centrale);1.60E+12;1.60E+12;9.042666667;159;exploration;9;Atypical
2140;426;NA;6330;26;;Capital;Correct;Graduated College;1.60E+12;164;weiblich;italian;6241;1.60E+12;[0,90,180,270,360,426,440,457,472,489,507,523,539,556,574,590,606,696,786,876,966,1056,1146,1236,1326,1416,1506,1596,1686,1776,1866,1956,2046,2136,2226,2316,2406,2496,2586,2676,2766,2856,2946,3036,3126,3216,3306,3396,3486,3576,3666,3756,3846,3936,4026,4042,4056,4073,4089,4105,4124,4140,4157,4173,4190,4207,4224,4240,4256,4273,4290,4306,4322,4339,4356,4374,4390,4407,4423,4440,4456,4473,4490,4506,4523,4539,4556,4573,4590,4606,4623,4644,4659,4673,4690,4706,4723,4739,4756,4774,4790,4807,4824,4839,4856,4874,4889,4906,4924,4939,4956,4973,4990,5005,5024,5040,5057,5073,5090,5107,5123,5140,5157,5206,5223,5241,5257,5273,5290,5380,5470,5551,5559,5573,5590,5606,5622,5640,5657,5673,5690,5707,5723,5741,5756,5773,5789,5806,5823,5839,5856,5873,5890,5907,5923,5940,5957,5973,5991,6007,6023,6040,6058,6075,6090,6106,6124,6141,6157,6174,6190,6207,6225,6241];[0,0,0,0,0,0,0,2,10,18,32,43,52,65,78,92,100,100,100,100,100,100,100,100,100,100,100,100,100,100,100,100,100,100,100,100,100,100,100,100,100,100,100,100,100,100,100,100,100,100,100,100,100,100,100,101,104,118,138,165,212,239,264,279,295,304,312,317,321,323,325,325,325,325,325,323,321,319,317,314,312,310,307,305,304,303,302,301,301,301,301,301,301,301,302,302,303,303,304,306,310,315,321,328,336,342,347,352,355,358,359,361,361,362,362,362,362,362,361,354,337,310,266,11,-25,-46,-60,-67,-71,-72,-73,-74,-78,-83,-98,-141,-199,-302,-358,-389,-422,-446,-459,-471,-481,-486,-492,-495,-498,-500,-502,-503,-503,-504,-504,-504,-503,-502,-501,-500,-499,-498,-498,-497,-496,-495,-493,-492,-491,-490,-490,-489,-489,-489];[0,1,2,3,4,3,8,39,103,150,215,253,279,308,332,357,371,371,371,371,371,371,371,371,371,371,371,371,371,371,371,371,371,371,371,371,371,371,371,371,371,371,371,371,371,371,371,371,371,371,371,371,371,371,371,371,374,385,402,424,464,490,516,532,551,564,577,587,595,599,604,608,610,611,612,613,614,614,615,615,615,615,615,615,615,615,615,614,614,614,614,613,613,613,613,613,613,612,612,610,608,604,601,597,594,592,590,589,589,589,591,594,599,603,611,619,628,637,648,659,676,694,714,684,661,645,632,624,618,618,618,618,618,617,615,613,610,610,613,617,624,630,634,638,642,644,647,650,653,656,663,666,670,673,676,679,682,683,685,685,686,686,686,686,686,686,686,686,686,686,686,686,686,686];86.93018775;Non-Capital;Capital;750;720;Ottawa;Capital;Thu Aug 06 2020 12:34:54 GMT+0200 (Ora legale dell’Europa centrale);1.60E+12;1.60E+12;9.042666667;174;exploration;10;Atypical
2140;611;NA;2902;26;;Capital;Correct;Graduated College;1.60E+12;164;weiblich;italian;2775;1.60E+12;[0,90,180,270,360,450,540,611,624,642,658,674,691,708,724,741,758,775,792,808,825,841,931,1021,1111,1201,1291,1357,1373,1391,1408,1425,1441,1458,1475,1491,1507,1524,1541,1557,1574,1591,1608,1629,1642,1658,1674,1692,1707,1725,1741,1757,1774,1791,1807,1825,1841,1857,1875,1907,1941,1958,2008,2057,2075,2091,2108,2124,2141,2158,2174,2191,2207,2224,2241,2259,2275,2292,2308,2325,2415,2501,2509,2524,2540,2558,2574,2592,2608,2625,2642,2658,2675,2691,2708,2724,2741,2757,2775];[0,0,0,0,0,0,0,0,0,5,12,16,20,22,25,27,29,30,31,32,32,33,33,33,33,33,33,33,42,77,124,184,224,269,291,324,344,358,366,372,377,378,378,379,379,380,381,383,385,387,388,389,390,391,392,392,393,393,394,394,394,394,394,394,394,392,384,362,305,226,125,41,-72,-162,-190,-215,-229,-234,-238,-241,-242,-242,-248,-254,-270,-297,-332,-350,-371,-384,-393,-400,-404,-408,-410,-412,-413,-414,-414];[0,2,4,6,8,10,12,12,35,96,166,236,305,346,381,401,421,429,435,438,439,442,442,442,442,442,442,442,446,466,492,525,548,576,592,621,643,659,670,677,682,683,683,683,683,683,683,679,672,666,661,657,654,653,653,652,652,652,652,652,652,652,651,651,651,651,650,649,649,655,666,673,680,681,681,680,676,674,672,669,669,669,669,669,669,669,669,669,669,668,667,666,666,666,666,666,666,667,667];82.25579111;Non-Capital;Capital;742;715;Rom;Capital;Thu Aug 06 2020 12:34:54 GMT+0200 (Ora legale dell’Europa centrale);1.60E+12;1.60E+12;9.042666667;99;exploration;11;Typical
2140;551;NA;4323;26;;Capital;Correct;Graduated College;1.60E+12;164;weiblich;italian;3377;1.60E+12;[0,90,180,270,360,450,540,551,561,577,593,610,627,643,660,677,693,710,726,742,760,777,794,810,827,843,860,877,893,910,926,943,960,977,993,1010,1027,1043,1061,1077,1093,1183,1233,1243,1260,1276,1294,1311,1327,1343,1360,1376,1393,1409,1499,1589,1679,1769,1859,1949,2039,2129,2219,2309,2399,2489,2579,2621,2629,2643,2660,2676,2693,2710,2727,2743,2761,2776,2794,2811,2828,2843,2861,2879,2895,2910,2927,2945,2959,2977,2994,3010,3026,3044,3060,3076,3094,3111,3175,3194,3210,3227,3243,3261,3277,3293,3310,3327,3343,3360,3377];[0,0,0,0,0,0,0,0,0,-4,-11,-14,-15,-15,-12,-6,-2,1,4,6,7,7,7,8,8,10,13,19,27,36,43,50,55,59,61,62,63,64,64,64,64,64,64,64,64,64,64,66,75,85,98,114,149,189,189,189,189,189,189,189,189,189,189,189,189,189,189,190,195,201,219,267,313,357,380,396,404,409,413,417,422,426,430,433,435,437,438,439,439,439,439,439,439,439,439,439,439,439,439,439,438,438,437,437,436,436,435,435,435,435,435];[0,1,2,3,4,5,6,4,11,41,89,153,198,248,285,313,325,333,339,342,344,344,344,344,344,344,344,341,337,332,327,321,317,313,311,309,309,308,308,307,307,308,308,308,310,319,336,362,406,442,475,508,561,611,611,611,611,611,611,611,611,611,611,611,611,611,611,611,611,612,616,629,642,652,656,659,660,661,662,664,665,667,668,669,671,672,673,673,674,674,675,677,678,680,681,681,682,682,682,682,682,682,682,682,681,681,681,681,680,680,680];64.59634608;Non-Capital;Capital;752;720;Beijing;Capital;Thu Aug 06 2020 12:34:54 GMT+0200 (Ora legale dell’Europa centrale);1.60E+12;1.60E+12;9.042666667;111;exploration;12;Atypical
2140;1154;NA;5170;26;;Capital;Correct;Graduated College;1.60E+12;164;weiblich;italian;3349;1.60E+12;[0,90,180,270,360,450,540,630,720,810,900,990,1080,1154,1163,1180,1197,1213,1230,1246,1263,1279,1296,1313,1329,1346,1363,1380,1396,1413,1430,1446,1463,1480,1570,1660,1750,1840,1847,1863,1880,1897,1913,1930,1946,1963,1980,1997,2013,2030,2046,2063,2080,2096,2112,2130,2146,2163,2180,2196,2214,2230,2247,2263,2280,2296,2314,2329,2347,2363,2380,2397,2425,2463,2479,2497,2513,2529,2546,2564,2580,2597,2614,2630,2647,2664,2680,2770,2860,2950,2964,2980,2997,3013,3030,3046,3063,3081,3098,3114,3130,3148,3163,3182,3198,3214,3230,3247,3264,3281,3297,3314,3332,3349];[0,0,0,0,0,0,0,0,0,0,0,0,0,0,0,0,3,7,10,13,16,21,26,29,33,38,42,45,50,55,59,61,64,67,71,75,79,82,89,95,105,107,109,111,104,81,25,-20,-67,-101,-127,-148,-157,-163,-165,-166,-166,-166,-166,-162,-142,-112,-87,-57,-40,-24,-12,-11,-6,-5,-5,-5,-5,-4,-4,-4,-4,-6,-18,-32,-54,-83,-105,-129,-143,-155,-163,-163,-163,-163,-164,-172,-186,-215,-269,-331,-373,-418,-439,-457,-468,-474,-479,-483,-485,-486,-486,-487,-487,-487,-487,-487,-486,-486];[0,0,0,0,0,0,0,0,0,0,0,0,0,0,4,18,43,68,84,97,108,120,132,143,154,170,185,204,228,253,267,282,290,298,297,296,295,296,295,294,294,294,297,314,363,428,530,591,642,672,689,699,701,701,701,700,698,694,682,653,595,532,487,439,410,383,363,361,352,350,349,349,349,349,349,352,363,389,443,486,530,569,590,607,614,618,618,618,618,618,618,619,623,630,644,658,666,673,676,680,682,684,685,686,687,687,687,688,688,688,689,689,689,689];74.9232768;Non-Capital;Capital;749;728;Moscow;Capital;Thu Aug 06 2020 12:34:54 GMT+0200 (Ora legale dell’Europa centrale);1.60E+12;1.60E+12;9.042666667;114;exploration;13;Typical
2140;368;NA;3654;26;;Non-Capital;Correct;Graduated College;1.60E+12;164;weiblich;italian;3312;1.60E+12;[0,90,180,270,360,368,391,429,445,462,478,495,513,529,546,562,579,596,613,630,646,662,679,695,712,729,746,763,780,795,813,829,846,862,952,1042,1132,1222,1312,1402,1492,1582,1604,1613,1630,1645,1662,1679,1697,1713,1729,1746,1762,1779,1796,1813,1830,1920,2010,2100,2190,2280,2370,2460,2550,2640,2730,2820,2868,2879,2896,2913,2929,2945,2956,2988,2995,3012,3028,3046,3063,3079,3096,3113,3129,3145,3162,3179,3195,3212,3229,3247,3262,3280,3295,3312];[0,0,0,0,0,1,1,1,1,1,1,1,1,2,2,2,3,4,6,8,10,12,16,18,19,17,11,2,-5,-11,-16,-19,-20,-21,-21,-21,-21,-21,-21,-21,-21,-21,-21,-23,-31,-58,-98,-149,-205,-257,-290,-327,-346,-359,-372,-376,-378,-378,-378,-378,-378,-378,-378,-378,-378,-378,-378,-378,-377,-373,-343,-275,-161,-73,-21,145,145,195,216,241,260,274,286,295,304,311,317,323,329,334,340,345,349,353,357,361];[0,0,0,0,0,0,0,0,1,1,1,1,2,2,3,4,5,7,10,15,19,25,40,61,106,174,205,239,265,283,305,320,327,334,334,334,334,334,334,334,334,334,335,338,347,374,412,455,498,538,564,595,612,625,639,645,649,649,649,649,649,649,649,649,649,649,649,649,649,649,658,678,706,721,728,728,728,716,711,708,707,707,709,712,714,716,716,716,713,711,707,706,705,704,703,703];85.20979542;Non-Capital;Capital;746;729;Barcelona;Non-Capital;Thu Aug 06 2020 12:34:54 GMT+0200 (Ora legale dell’Europa centrale);1.60E+12;1.60E+12;9.042666667;96;exploration;14;Atypical
2139;NA;;2649;24;;NA;NA;Higher Degree;1.60E+12;164;other;;NA;NA;NA;NA;NA;NA;Mouse;Touch Pad;NA;NA;Are you using a mouse or a touch pad in this experiment?;Mouse;Thu Aug 06 2020 09:25:32 GMT+0100 (British Summer Time);1.60E+12;NA;7.671216667;NA;mouse_question;1;NA
2139;NA;;2246;24;;NA;NA;Higher Degree;1.60E+12;164;other;;NA;NA;NA;NA;NA;NA;Left;Right;NA;NA;Are you using your left or right hand in this experiment?;Right;Thu Aug 06 2020 09:25:32 GMT+0100 (British Summer Time);1.60E+12;NA;7.671216667;NA;hand_question;1;NA
2139;728;NA;2352;24;;Mammal;Correct;Higher Degree;1.60E+12;164;other;;2231;1.60E+12;[0,90,180,270,360,450,540,630,720,727,735,747,765,781,797,815,831,847,864,881,898,915,931,948,965,981,998,1015,1031,1048,1065,1143,1151,1165,1181,1198,1215,1231,1248,1265,1281,1298,1314,1331,1348,1365,1381,1398,1414,1431,1449,1465,1499,1515,1532,1549,1565,1582,1599,1615,1632,1649,1665,1682,1699,1715,1732,1749,1823,1831,1848,1864,1881,1899,1915,1932,1949,1965,1982,2072,2162,2175,2183,2198,2214,2231];[0,1,2,3,4,5,6,7,8,7,19,35,75,106,131,167,198,238,278,312,343,372,395,408,415,417,419,419,419,419,419,419,415,404,361,261,14,-161,-290,-380,-429,-447,-447,-439,-370,-228,-33,175,356,550,600,604,604,588,566,546,528,502,413,324,210,67,-99,-266,-423,-534,-604,-618,-620,-622,-630,-639,-648,-655,-664,-675,-688,-698,-700,-700,-700,-700,-699,-698,-697,-696];[0,1,2,3,4,5,6,7,8,12,31,55,110,154,188,236,280,337,392,439,487,536,576,601,616,624,631,637,642,647,649,650,650,650,643,643,697,745,779,805,819,826,827,833,850,865,869,876,878,890,890,890,889,882,872,865,857,851,836,827,825,825,833,835,835,835,835,835,835,835,835,837,839,841,843,843,843,842,842,842,842,843,844,845,848,850];79.59143834;Mammal;Amphibian;984;895;Rabbit;Mammal;Thu Aug 06 2020 09:25:32 GMT+0100 (British Summer Time);1.60E+12;1.60E+12;7.671216667;86;training;1;Typical
2139;400;NA;3088;24;;Mammal;Incorrect;Higher Degree;1.60E+12;164;other;;2999;1.60E+12;[0,90,180,270,360,400,415,431,448,465,481,498,515,531,548,565,582,598,615,632,648,665,682,698,715,732,748,765,782,799,815,832,848,865,882,898,915,932,948,965,982,999,1015,1032,1048,1065,1082,1099,1115,1132,1148,1165,1182,1198,1288,1378,1468,1558,1600,1614,1631,1649,1663,1753,1843,1933,2023,2031,2032,2048,2065,2082,2172,2262,2304,2315,2332,2348,2365,2381,2399,2415,2432,2448,2465,2555,2592,2599,2615,2632,2648,2666,2682,2698,2715,2732,2748,2765,2782,2798,2815,2832,2849,2865,2882,2898,2915,2999];[0,0,0,0,0,0,0,0,0,0,-4,-16,-31,-54,-86,-116,-149,-181,-212,-266,-301,-341,-385,-431,-468,-495,-521,-542,-557,-567,-571,-574,-575,-575,-575,-570,-565,-563,-560,-559,-558,-558,-558,-558,-559,-563,-567,-573,-580,-583,-587,-589,-592,-593,-593,-593,-593,-593,-593,-588,-502,-396,-332,-102,128,358,588,607,611,613,614,614,612,610,610,601,558,455,299,86,-148,-377,-643,-732,-751,-751,-751,-751,-751,-759,-766,-768,-769,-770,-770,-770,-770,-770,-770,-770,-769,-769,-769,-769,-768,-768,-768,-768];[0,0,0,0,0,2,8,36,118,183,250,321,383,440,486,519,541,554,567,589,602,620,639,659,674,685,694,703,709,715,719,724,733,745,759,773,783,791,795,799,802,803,805,808,810,815,819,823,828,832,835,839,843,845,845,845,845,845,846,849,868,882,892,890,888,886,884,882,853,836,829,828,830,832,833,840,855,868,868,868,853,819,781,759,751,753,754,758,762,781,790,795,797,798,800,801,804,808,812,816,820,827,831,834,836,839,840,840];64.03882468;Mammal;Bird;990;894;Bat;Bird;Thu Aug 06 2020 09:25:32 GMT+0100 (British Summer Time);1.60E+12;1.60E+12;7.671216667;108;training;2;Typical
2139;416;NA;1528;24;;Mammal;Correct;Higher Degree;1.60E+12;164;other;;1370;1.60E+12;[0,90,180,270,360,416,423,437,454,470,487,504,521,537,554,570,588,604,620,637,654,670,687,704,720,737,754,769,787,804,820,848,863,871,888,904,921,937,954,971,988,1004,1021,1038,1048,1138,1228,1304,1321,1337,1354,1370];[0,-1,-2,-3,-4,-6,-16,-32,-73,-110,-134,-144,-147,-147,-147,-147,-148,-149,-149,-146,-113,-37,95,315,448,538,575,594,602,605,607,607,608,611,617,626,637,649,660,669,676,689,700,717,727,744,761,775,771,768,766,766];[0,1,2,3,4,3,13,29,75,127,163,185,195,201,211,222,235,248,260,280,327,393,472,609,702,766,799,814,821,824,825,826,828,830,835,843,850,861,867,870,872,876,879,884,888,887,886,886,875,869,867,865];51.47884253;Mammal;Insect;978;890;Lion;Mammal;Thu Aug 06 2020 09:25:32 GMT+0100 (British Summer Time);1.60E+12;1.60E+12;7.671216667;52;training;3;Typical
2139;312;NA;1864;24;;Mammal;Correct;Higher Degree;1.60E+12;164;other;;1710;1.60E+12;[0,90,180,270,312,335,425,515,552,567,583,592,608,625,642,658,675,692,782,832,842,859,875,892,909,925,941,958,975,992,1009,1025,1042,1059,1075,1092,1109,1125,1215,1280,1292,1309,1325,1342,1359,1375,1392,1409,1425,1442,1459,1475,1492,1509,1526,1542,1559,1575,1592,1609,1626,1642,1659,1676,1693,1710];[0,0,0,0,1,2,2,2,3,4,5,6,8,10,13,16,19,20,19,19,12,-27,-92,-159,-206,-224,-231,-234,-234,-230,-221,-216,-212,-208,-204,-201,-200,-199,-198,-198,-200,-214,-242,-297,-366,-446,-561,-608,-637,-646,-650,-652,-654,-655,-656,-658,-663,-671,-680,-683,-685,-688,-690,-692,-694,-695];[0,0,0,0,0,0,0,0,0,0,1,1,2,2,3,4,6,6,7,8,16,48,106,159,197,210,220,231,243,256,262,264,265,266,267,267,267,267,267,267,269,281,318,395,488,577,676,712,733,744,754,763,770,775,781,795,815,832,845,847,848,850,851,856,861,864];50.85280256;Mammal;Fish;980;889;Dolphin;Mammal;Thu Aug 06 2020 09:25:32 GMT+0100 (British Summer Time);1.60E+12;1.60E+12;7.671216667;66;main;1;Atypical
2139;196;NA;1399;24;;Insect;Correct;Higher Degree;1.60E+12;164;other;;1263;1.60E+12;[0,90,180,196,213,230,246,263,353,443,480,496,513,530,546,563,580,596,613,630,645,663,679,696,712,729,746,762,780,795,812,829,846,936,1000,1046,1062,1120,1135,1146,1163,1179,1196,1213,1229,1246,1263];[0,2,4,5,15,25,25,26,27,28,29,79,119,150,178,212,245,272,290,305,324,353,431,480,523,576,632,682,721,749,770,776,777,777,777,776,774,773,772,771,764,755,747,742,737,734,733];[0,4,8,8,21,40,79,99,100,101,102,230,370,486,576,657,727,775,803,814,815,810,783,770,764,761,758,758,772,787,799,807,809,810,810,810,810,810,809,809,815,827,838,845,852,855,857];47.12273436;Insect;Reptile;980;886;Fly;Insect;Thu Aug 06 2020 09:25:32 GMT+0100 (British Summer Time);1.60E+12;1.60E+12;7.671216667;47;main;2;Typical
2139;32;NA;1496;24;;Fish;Correct;Higher Degree;1.60E+12;164;other;;1265;1.60E+12;[0,32,122,212,302,384,398,415,431,448,465,481,498,515,531,548,565,581,598,615,631,648,665,681,698,715,731,748,765,781,798,815,831,848,865,882,898,915,931,948,965,982,1072,1162,1208,1232,1249,1265];[0,0,0,0,0,1,2,5,11,25,39,56,76,99,134,174,220,282,349,393,410,416,416,413,403,386,349,283,184,57,-77,-228,-355,-476,-509,-532,-545,-556,-570,-601,-643,-693,-717,-741,-753,-744,-741,-740];[0,1,1,1,1,1,1,3,7,12,19,29,40,55,79,109,150,209,290,357,393,412,419,426,436,447,464,500,554,618,674,712,731,737,737,737,737,740,751,777,825,884,887,890,891,870,864,863];55.74494011;Fish;Bird;979;893;Clownfish;Fish;Thu Aug 06 2020 09:25:32 GMT+0100 (British Summer Time);1.60E+12;1.60E+12;7.671216667;48;main;3;Typical
2139;328;NA;1408;24;;Reptile;Correct;Higher Degree;1.60E+12;164;other;;1297;1.60E+12;[0,90,180,270,328,343,432,448,464,480,497,514,530,547,564,581,597,614,630,647,664,681,697,714,731,747,764,781,797,814,831,847,864,881,897,914,931,948,1024,1031,1048,1064,1081,1097,1114,1131,1151,1165,1181,1198,1264,1297];[0,0,0,0,0,-1,2,23,67,138,222,316,408,480,541,592,635,657,665,667,663,639,580,523,467,401,321,239,173,115,49,-34,-212,-349,-478,-570,-612,-625,-623,-620,-617,-613,-611,-607,-604,-602,-601,-600,-600,-600,-600,-600];[0,0,0,0,-1,-3,-1,2,12,35,75,133,198,250,299,343,381,404,423,435,447,460,473,483,494,504,511,511,515,526,547,583,668,728,781,812,824,825,826,826,828,830,832,835,837,839,841,842,847,851,852,853];58.12417515;Reptile;Fish;977;898;Snake;Reptile;Thu Aug 06 2020 09:25:32 GMT+0100 (British Summer Time);1.60E+12;1.60E+12;7.671216667;52;main;4;Typical
2139;95;NA;4108;24;;Reptile;Correct;Higher Degree;1.60E+12;164;other;;3388;1.60E+12;[0,90,95,111,149,239,329,415,432,449,466,482,499,516,532,549,565,582,599,616,632,649,666,682,699,716,732,749,766,782,800,816,832,849,866,882,899,916,933,949,966,983,999,1016,1033,1049,1066,1083,1099,1116,1133,1149,1166,1183,1199,1216,1233,1323,1384,1400,1416,1433,1449,1466,1483,1499,1589,1679,1769,1859,1949,2039,2095,2103,2116,2132,2149,2166,2182,2199,2215,2232,2249,2266,2282,2300,2327,2335,2349,2366,2382,2399,2416,2432,2449,2466,2482,2499,2516,2532,2549,2566,2582,2599,2616,2632,2649,2666,2682,2699,2752,2755,2772,2788,2805,2822,2838,2908,2921,2938,2964,2980,2989,3005,3022,3038,3055,3072,3088,3105,3122,3138,3156,3238,3256,3272,3289,3306,3322,3339,3354,3371,3388];[0,0,0,1,2,2,2,3,4,5,7,10,15,23,38,56,73,87,112,128,143,155,165,178,195,224,256,289,314,327,330,330,326,323,322,319,316,310,301,291,280,268,267,275,289,306,331,365,392,414,434,454,472,491,510,527,528,527,527,522,513,495,467,438,391,362,362,362,362,362,362,362,363,365,367,370,372,373,377,392,404,420,431,443,447,448,448,448,448,448,450,451,452,452,452,449,444,441,436,422,398,350,274,187,31,-69,-158,-224,-252,-258,-259,-256,-241,-221,-192,-183,-181,-184,-187,-190,-191,-191,-190,-172,-127,-31,85,204,309,399,456,478,482,484,487,492,498,507,514,521,526,527,528];[0,-1,-1,-1,-1,-1,-1,-1,-1,0,3,5,9,16,26,38,48,58,80,92,102,110,118,127,142,174,214,256,290,313,340,357,373,379,383,386,389,391,395,403,413,424,429,439,444,446,446,444,443,442,442,442,441,437,435,432,432,432,432,432,432,430,428,428,428,428,428,428,428,428,428,428,427,425,424,420,418,417,417,418,423,429,433,438,441,443,444,445,448,456,466,485,499,512,528,542,553,559,567,580,593,615,647,673,715,742,755,765,769,770,770,772,779,787,799,802,803,803,803,803,803,802,802,801,801,815,831,845,859,874,882,885,886,886,887,887,887,884,878,873,869,868,867];63.24750457;Reptile;Amphibian;981;891;Salamander;Reptile;Thu Aug 06 2020 09:25:32 GMT+0100 (British Summer Time);1.60E+12;1.60E+12;7.671216667;143;main;5;Atypical
2139;313;NA;1960;24;;Amphibian;Incorrect;Higher Degree;1.60E+12;164;other;;1796;1.60E+12;[0,90,180,270,312,329,345,362,379,395,412,429,446,462,479,496,512,529,546,563,579,596,612,629,646,662,679,696,712,729,746,763,779,795,813,903,912,930,946,963,979,995,1085,1175,1265,1355,1445,1535,1625,1689,1696,1712,1729,1745,1762,1779,1796];[0,-1,-2,-3,-2,-15,-34,-55,-74,-90,-117,-150,-184,-219,-244,-260,-276,-314,-348,-392,-435,-480,-531,-581,-631,-664,-679,-679,-679,-679,-679,-679,-679,-679,-678,-675,-675,-667,-660,-656,-654,-654,-654,-654,-654,-654,-654,-654,-654,-653,-653,-653,-653,-652,-652,-651,-651];[0,1,2,3,2,14,26,41,57,84,131,180,227,270,299,318,337,382,423,471,520,574,635,697,753,798,824,831,836,852,867,882,893,898,900,895,895,876,861,853,847,846,846,846,846,846,846,846,846,847,849,852,857,861,865,867,868];52.53472851;Amphibian;Fish;982;900;Seaturtle;Fish;Thu Aug 06 2020 09:25:32 GMT+0100 (British Summer Time);1.60E+12;1.60E+12;7.671216667;57;main;6;Atypical
2139;336;NA;2392;24;;Amphibian;Correct;Higher Degree;1.60E+12;164;other;;2280;1.60E+12;[0,90,180,270,336,344,360,376,393,410,426,443,460,476,493,510,526,543,560,576,593,610,626,643,660,676,693,709,726,743,760,776,793,810,826,843,860,876,893,910,927,943,1033,1123,1213,1303,1393,1483,1573,1663,1696,1709,1726,1743,1759,1776,1866,1956,2024,2043,2059,2077,2167,2257,2280];[0,0,0,0,1,4,6,9,9,8,-3,-17,-21,-17,13,95,206,335,467,578,668,687,696,701,706,715,728,735,740,745,748,749,750,750,748,746,744,743,741,740,739,739,739,739,739,739,739,739,739,739,738,721,618,461,243,-6,-237,-468,-643,-635,-632,-631,-631,-631,-631];[0,0,0,0,0,2,14,91,164,238,314,386,436,469,509,553,600,635,673,701,728,735,739,742,745,749,754,757,762,767,773,783,802,822,840,856,865,870,874,877,878,879,879,879,879,879,879,879,879,879,880,880,880,880,880,896,898,900,902,871,856,852,852,852,851];66.92044765;Amphibian;Reptile;989;905;Frog;Amphibian;Thu Aug 06 2020 09:25:32 GMT+0100 (British Summer Time);1.60E+12;1.60E+12;7.671216667;65;main;7;Atypical
2139;296;NA;1720;24;;Bird;Correct;Higher Degree;1.60E+12;164;other;;1559;1.60E+12;[0,90,180,270,296,309,325,342,359,375,392,409,425,442,459,476,492,509,526,542,559,576,592,609,626,642,691,709,725,743,759,775,792,808,825,841,858,948,952,960,975,991,1008,1032,1042,1058,1075,1093,1109,1126,1143,1176,1192,1210,1225,1241,1259,1275,1291,1309,1325,1342,1425,1442,1459,1475,1492,1508,1526,1542,1559];[0,2,4,6,6,10,28,46,70,111,171,298,384,453,497,524,546,561,573,577,579,583,587,593,595,596,592,559,469,343,187,26,-138,-350,-432,-454,-458,-459,-459,-464,-470,-485,-489,-490,-491,-497,-508,-524,-542,-551,-552,-551,-532,-353,-158,55,255,435,564,622,637,639,640,642,644,645,646,650,653,655,655];[0,1,2,3,2,2,11,24,51,113,207,364,438,492,524,539,549,555,558,560,560,562,562,565,565,565,567,578,613,655,696,737,777,808,819,819,819,819,819,822,826,832,833,833,833,834,836,840,842,844,844,844,844,846,850,850,850,850,841,831,826,826,826,826,826,826,827,831,835,838,839];88.64914619;Bird;Reptile;982;885;Eagle;Bird;Thu Aug 06 2020 09:25:32 GMT+0100 (British Summer Time);1.60E+12;1.60E+12;7.671216667;71;main;8;Typical
